#Wave		#Intensity
1438.076172	5146.135254
1436.968750	4800.347656
1435.863281	5106.740234
1434.755859	4967.955566
1433.650391	4930.868164
1432.542969	4814.753418
1431.435547	4924.473145
1430.328125	4869.355957
1429.220703	4981.280762
1428.113281	4919.404297
1427.003906	4947.798828
1425.896484	4919.788574
1424.787109	4887.278809
1423.679688	4929.192383
1422.570313	4971.090820
1421.460938	4958.876465
1420.351563	4863.283203
1419.242188	4929.955566
1418.132813	4951.547363
1417.021484	4952.860352
1415.912109	4967.684570
1414.802734	4878.935547
1413.691406	4977.056641
1412.580078	4890.590332
1411.468750	4813.157715
1410.357422	4996.727051
1409.246094	4878.815918
1408.134766	5035.316895
1407.023438	4946.673340
1405.910156	4988.451172
1404.798828	4944.802734
1403.685547	5173.083984
1402.574219	5156.379395
1401.460938	5299.172852
1400.347656	5271.221191
1399.234375	5119.776367
1398.121094	5150.241699
1397.007813	5068.461914
1395.892578	5054.040527
1394.779297	5118.158691
1393.664063	5025.214844
1392.550781	5080.342285
1391.435547	5034.534180
1390.320313	5132.239746
1389.205078	5007.979492
1388.089844	4912.903320
1386.974609	4965.759277
1385.857422	4940.180664
1384.742188	4863.090820
1383.625000	4803.946777
1382.509766	4874.697754
1381.392578	4835.722656
1380.275391	5036.265137
1379.158203	4916.709473
1378.041016	4980.673828
1376.923828	4977.501953
1375.806641	4949.728027
1374.687500	4921.964355
1373.570313	4896.447266
1372.451172	4924.589355
1371.332031	4977.305664
1370.214844	4893.694336
1369.095703	5020.123535
1367.976563	4871.757324
1366.855469	4803.845703
1365.736328	5019.536621
1364.617188	4924.833008
1363.496094	4883.734375
1362.376953	5023.414063
1361.255859	4975.618652
1360.134766	4896.610352
1359.013672	4955.915039
1357.892578	4972.828613
1356.771484	4980.817383
1355.650391	4906.325684
1354.529297	4978.956543
1353.406250	4944.602539
1352.285156	5012.743652
1351.162109	4969.485840
1350.039063	4935.152832
1348.917969	4909.738770
1347.794922	4933.311523
1346.671875	5034.778809
1345.546875	5060.544434
1344.423828	5032.901367
1343.300781	5005.268555
1342.175781	4999.887695
1341.052734	5038.983398
1339.927734	5253.707031
1338.802734	4850.382324
1337.677734	5007.276367
1336.552734	5044.119629
1335.427734	5023.185547
1334.302734	5159.968750
1333.175781	5072.395996
1332.050781	4953.770020
1330.923828	4972.828613
1329.798828	5022.955078
1328.671875	4939.911133
1327.544922	4998.899902
1326.417969	4973.568848
1325.291016	5141.208984
1324.164063	4991.679199
1323.035156	5010.706055
1321.908203	5009.775391
1320.779297	5039.873535
1319.652344	4952.518066
1318.523438	4940.521484
1317.394531	4904.163574
1316.265625	4925.400391
1315.136719	4997.557129
1314.007813	5034.265137
1312.878906	5066.533203
1311.748047	4952.729980
1310.619141	5091.205566
1309.488281	5006.198730
1308.357422	5109.224609
1307.228516	5008.766113
1306.097656	4901.711914
1304.966797	4960.488770
1303.833984	4961.780273
1302.703125	5124.381836
1301.572266	5094.711914
1300.439453	4952.397949
1299.308594	4997.859863
1298.175781	4860.032715
1297.042969	4931.986816
1295.910156	4990.671387
1294.777344	4952.230957
1293.644531	4946.901855
1292.511719	4901.865723
1291.378906	4980.362793
1290.244141	4959.594727
1289.111328	4846.231445
1287.976563	4845.335449
1286.841797	4917.172363
1285.707031	4929.485352
1284.572266	4963.826172
1283.437500	4857.174316
1282.302734	4827.645996
1281.167969	4793.724609
1280.033203	4889.708496
1278.896484	4917.420898
1277.759766	4854.891602
1276.625000	4838.592773
1275.488281	4751.900879
1274.351563	4997.373535
1273.214844	4725.956543
1272.078125	4898.784668
1270.939453	4796.757324
1269.802734	4934.341309
1268.666016	4852.123047
1267.527344	4897.367188
1266.388672	4856.923340
1265.251953	4722.052734
1264.113281	4925.400879
1262.974609	4878.387207
1261.833984	4864.316895
1260.695313	4872.198730
1259.556641	4842.774902
1258.416016	4859.433594
1257.277344	4915.567871
1256.136719	4921.241211
1254.998047	4999.270020
1253.857422	4882.159180
1252.716797	4986.468750
1251.576172	4882.551758
1250.433594	4883.843262
1249.292969	4935.519043
1248.152344	4855.761719
1247.009766	4929.321777
1245.869141	5035.695801
1244.726563	4879.347656
1243.583984	4939.730469
1242.441406	4962.891602
1241.298828	4898.530762
1240.156250	4880.129883
1239.013672	4995.143066
1237.869141	4878.333008
1236.726563	5080.752930
1235.582031	4931.182617
1234.437500	5096.365723
1233.294922	5187.198242
1232.150391	5020.213867
1231.005859	4964.685059
1229.859375	5059.858398
1228.714844	4991.242188
1227.570313	5005.604980
1226.423828	4993.770996
1225.279297	5073.593262
1224.132813	5009.388184
1222.986328	5080.452148
1221.839844	5088.241699
1220.693359	5106.931152
1219.546875	5180.118164
1218.400391	5137.749512
1217.253906	5060.525879
1216.105469	5050.879395
1214.958984	5039.057617
1213.810547	5009.814941
1212.662109	5091.648926
1211.515625	5140.792480
1210.367188	5168.147949
1209.218750	5034.426270
1208.068359	5090.081055
1206.919922	5176.176270
1205.771484	5144.769531
1204.621094	5113.374023
1203.472656	5212.464355
1202.322266	5220.202637
1201.171875	5245.328613
1200.021484	5103.094238
1198.871094	5206.459473
1197.720703	5166.395508
1196.570313	5161.101563
1195.417969	5220.962891
1194.267578	5161.375488
1193.115234	5229.898438
1191.962891	5268.007324
1190.812500	5260.528320
1189.660156	5229.184570
1188.507813	5158.802734
1187.353516	5205.572266
1186.201172	5315.213379
1185.048828	5168.967285
1183.894531	5321.930664
1182.742188	5329.622070
1181.587891	5159.616699
1180.433594	5240.998535
1179.279297	5337.514160
1178.125000	5150.274414
1176.970703	5233.778320
1175.816406	5258.795898
1174.662109	5145.269531
1173.505859	5386.715332
1172.351563	5407.363281
1171.195313	5192.190918
1170.039063	5238.822754
1168.884766	5304.900879
1167.728516	5386.089844
1166.570313	5354.833984
1165.414063	5410.046875
1164.257813	5527.908691
1163.101563	5401.575684
1161.943359	5454.588379
1160.785156	5518.380371
1159.628906	5433.147461
1158.470703	5503.396973
1157.312500	5517.495605
1156.154297	5535.904785
1154.996094	5558.623535
1153.835938	5628.796875
1152.677734	5586.777832
1151.517578	5712.993164
1150.359375	5578.253906
1149.199219	5738.917969
1148.039063	5660.265625
1146.878906	5708.791016
1145.718750	5791.773438
1144.558594	5846.719238
1143.398438	5890.875000
1142.236328	5889.791504
1141.076172	5865.023926
1139.914063	5814.432617
1138.753906	5847.799805
1137.591797	6021.027832
1136.429688	5968.283691
1135.267578	6055.380859
1134.105469	6112.335938
1132.941406	6016.596680
1131.779297	6204.682617
1130.615234	6175.596680
1129.453125	6198.100586
1128.289063	6263.570313
1127.125000	6204.412109
1125.960938	6241.932617
1124.796875	6298.767090
1123.632813	6327.667480
1122.468750	6476.775879
1121.304688	6574.315918
1120.138672	6495.850098
1118.974609	6627.679199
1117.808594	6540.651367
1116.642578	6578.052734
1115.476563	6634.739258
1114.310547	6684.973145
1113.144531	6628.007813
1111.978516	6763.951660
1110.812500	6801.275879
1109.644531	6782.882813
1108.476563	6905.870117
1107.310547	6915.305176
1106.142578	7014.668457
1104.974609	6912.756348
1103.806641	7108.402344
1102.638672	7060.010742
1101.470703	7208.484863
1100.300781	7076.660645
1099.132813	7227.214844
1097.962891	7384.128906
1096.794922	7372.076172
1095.625000	7456.223633
1094.455078	7565.986816
1093.285156	7560.317383
1092.115234	7511.919434
1090.945313	7542.574707
1089.773438	7588.168457
1088.603516	7684.992676
1087.431641	7726.272461
1086.261719	7761.133301
1085.089844	7825.858398
1083.917969	7884.158203
1082.746094	7938.169434
1081.574219	7985.761230
1080.402344	8142.095703
1079.228516	8012.662109
1078.056641	8288.311523
1076.882813	8156.767090
1075.710938	8238.368164
1074.537109	8383.856445
1073.363281	8399.348633
1072.189453	8549.011719
1071.015625	8453.738281
1069.841797	8492.626953
1068.666016	8610.259766
1067.492188	8783.181641
1066.316406	8783.685547
1065.142578	8796.953125
1063.966797	8895.297852
1062.791016	8895.778320
1061.615234	8936.658203
1060.439453	8979.648438
1059.263672	9099.138672
1058.085938	9163.332031
1056.910156	9091.521484
1055.732422	9325.634766
1054.556641	9474.705078
1053.378906	9286.083008
1052.201172	9403.257813
1051.023438	9422.743164
1049.845703	9599.273438
1048.667969	9540.203125
1047.488281	9648.755859
1046.310547	9789.084961
1045.130859	9668.508789
1043.953125	9793.938477
1042.773438	9906.601563
1041.593750	9955.635742
1040.414063	10097.893555
1039.234375	10030.338867
1038.054688	10227.608398
1036.873047	10297.723633
1035.693359	10126.405273
1034.511719	10173.222656
1033.332031	10493.091797
1032.150391	10381.090820
1030.968750	10539.983398
1029.787109	10624.768555
1028.605469	10705.291016
1027.423828	10758.290039
1026.240234	10678.056641
1025.058594	10638.020508
1023.875000	10741.728516
1022.693359	10817.924805
1021.509766	10796.899414
1020.326172	10953.331055
1019.142578	11050.564453
1017.958984	11107.638672
1016.773438	10968.337891
1015.589844	10997.962891
1014.406250	11221.746094
1013.220703	11171.125977
1012.035156	11131.072266
1010.849609	11264.000977
1009.666016	11293.540039
1008.478516	11236.615234
1007.292969	11573.942383
1006.107422	11422.134766
1004.921875	11426.331055
1003.734375	11411.561523
1002.548828	11643.271484
1001.361328	11333.593750
1000.173828	11379.916992
998.986328	11413.589844
997.798828	11567.236328
996.611328	11651.372070
995.423828	11480.859375
994.234375	11594.431641
993.046875	11459.750977
991.857422	11590.109375
990.667969	11604.769531
989.478516	11486.978516
988.289063	11621.458984
987.099609	11516.316406
985.910156	11560.392578
984.720703	11524.623047
983.529297	11703.101563
982.339844	11467.822266
981.148438	11488.775391
979.957031	11551.704102
978.767578	11576.831055
977.576172	11671.193359
976.382813	11379.490234
975.191406	11496.926758
974.000000	11385.723633
972.806641	11436.015625
971.615234	11563.855469
970.421875	11433.834961
969.228516	11611.920898
968.037109	11523.843750
966.841797	11756.311523
965.648438	11532.098633
964.455078	11465.024414
963.261719	11536.157227
962.066406	11458.639648
960.873047	11460.679688
959.677734	11456.440430
958.482422	11431.281250
957.287109	11533.725586
956.091797	11460.459961
954.896484	11418.583984
953.701172	11543.966797
952.503906	11589.875977
951.308594	11518.741211
950.111328	11554.189453
948.914063	11650.204102
947.718750	11269.985352
946.521484	11616.598633
945.322266	11432.780273
944.125000	11491.168945
942.927734	11472.315430
941.730469	11405.476563
940.531250	11203.056641
939.332031	11509.656250
938.134766	11411.563477
936.935547	11359.377930
935.736328	11419.783203
934.537109	11334.265625
933.335938	11486.341797
932.136719	11409.176758
930.935547	11304.959961
929.736328	11550.674805
928.535156	11196.590820
927.333984	11246.532227
926.132813	11317.269531
924.931641	11196.514648
923.730469	11496.114258
922.529297	11208.941406
921.328125	11410.666992
920.125000	11391.880859
918.921875	11477.059570
917.720703	11242.073242
916.517578	11248.267578
915.314453	11447.713867
914.111328	11138.069336
912.908203	11121.428711
911.703125	10913.724609
910.500000	11173.296875
909.294922	11083.995117
908.091797	11073.600586
906.886719	10996.800781
905.681641	11042.447266
904.476563	11005.095703
903.271484	11015.461914
902.064453	10913.844727
900.859375	11048.620117
899.654297	10826.803711
898.447266	10793.669922
897.240234	10868.298828
896.033203	10843.454102
894.826172	10692.267578
893.619141	10882.843750
892.412109	10752.410156
891.205078	10619.955078
889.996094	10497.898438
888.789063	10618.004883
887.580078	10394.613281
886.371094	10661.562500
885.164063	10508.564453
883.955078	10423.861328
882.744141	10351.593750
881.535156	10120.191406
880.326172	10229.872070
879.115234	10155.614258
877.906250	10046.263672
876.695313	10137.304688
875.484375	10046.583984
874.273438	9920.796875
873.062500	9838.407227
871.851563	9958.309570
870.640625	9933.720703
869.427734	9841.057617
868.216797	9804.123047
867.003906	9750.702148
865.791016	9882.875977
864.578125	9641.858398
863.365234	9650.332031
862.152344	9685.591797
860.939453	9494.195313
859.726563	9469.730469
858.511719	9467.929688
857.298828	9453.773438
856.083984	9451.974609
854.869141	9444.000977
853.654297	9421.623047
852.439453	9421.886719
851.224609	9313.116211
850.007813	9251.694336
848.792969	9289.003906
847.576172	9334.524414
846.361328	9168.291992
845.144531	9240.534180
843.927734	9226.443359
842.710938	9195.920898
841.494141	9124.328125
840.277344	9075.351563
839.058594	9184.500000
837.841797	9104.736328
836.623047	9144.048828
835.404297	9168.981445
834.187500	8970.262695
832.968750	8927.521484
831.750000	9016.059570
830.529297	8979.476563
829.310547	8934.707031
828.091797	8896.103516
826.871094	8980.477539
825.650391	8997.202148
824.429688	9061.037109
823.210938	8889.300781
821.988281	8912.174805
820.767578	8955.512695
819.546875	8953.798828
818.326172	8921.384766
817.103516	8958.555664
815.880859	8887.280273
814.660156	8979.670898
813.437500	9008.626953
812.214844	9000.766602
810.992188	8900.915039
809.767578	8929.867188
808.544922	8956.764648
807.322266	8944.831055
806.097656	9043.209961
804.873047	8986.332031
803.648438	8958.062500
802.423828	8982.883789
801.199219	9209.770508
799.974609	9042.699219
798.750000	9091.972656
797.523438	9259.545898
796.298828	9004.856445
795.072266	9137.713867
793.845703	9084.987305
792.619141	8991.511719
791.392578	8981.630859
790.166016	9077.710938
788.939453	9277.653320
787.710938	9135.325195
786.484375	8997.124023
785.255859	9194.928711
784.027344	9195.194336
782.798828	9109.976563
781.570313	9104.153320
780.341797	9326.196289
779.113281	9110.817383
777.884766	9192.444336
776.654297	9078.839844
775.423828	9115.715820
774.195313	9144.446289
772.964844	9158.940430
771.734375	9073.872070
770.503906	9037.588867
769.273438	9121.146484
768.041016	9200.610352
766.810547	9074.992188
765.578125	9166.611328
764.345703	9142.517578
763.115234	9294.958008
761.882813	9207.960938
760.648438	9331.932617
759.416016	9285.516602
758.183594	9210.734375
756.949219	9292.063477
755.716797	9385.520508
754.482422	9158.788086
753.248047	9252.233398
752.013672	9299.055664
750.779297	9386.361328
749.544922	9066.665039
748.310547	9172.199219
747.074219	9030.772461
745.839844	9288.037109
744.603516	9261.959961
743.367188	9183.301758
742.130859	9434.317383
740.894531	9163.567383
739.658203	9222.438477
738.421875	9155.973633
737.185547	9235.030273
735.947266	9176.667969
734.708984	9253.667969
733.472656	9310.442383
732.234375	9290.462891
730.996094	9290.678711
729.755859	9242.451172
728.517578	9293.125977
727.279297	9234.827148
726.039063	9420.639648
724.800781	9283.678711
723.560547	9421.012695
722.320313	9274.023438
721.080078	9080.729492
719.839844	9145.469727
718.599609	9246.452148
717.357422	9307.104492
716.117188	9301.266602
714.875000	9446.459961
713.632813	9400.328125
712.390625	9283.760742
711.148438	9477.172852
709.906250	9304.292969
708.664063	9364.846680
707.421875	9493.763672
706.177734	9270.704102
704.935547	9496.096680
703.691406	9421.878906
702.447266	9251.217773
701.203125	9428.253906
699.958984	9428.424805
698.714844	9438.638672
697.468750	9436.797852
696.224609	9603.618164
694.978516	9481.295898
693.732422	9493.495117
692.486328	9543.816406
691.240234	9558.003906
689.994141	9463.866211
688.748047	9526.195313
687.501953	9375.956055
686.253906	9622.710938
685.007813	9454.470703
683.759766	9460.639648
682.511719	9492.850586
681.263672	9585.144531
680.015625	9541.211914
678.767578	9513.315430
677.517578	9623.566406
676.269531	9645.704102
675.019531	9483.719727
673.769531	9495.870117
672.521484	9612.037109
671.271484	9488.153320
670.019531	9528.289063
668.769531	9590.399414
667.519531	9562.536133
666.267578	9604.629883
665.017578	9424.918945
663.765625	9606.859375
662.513672	9594.991211
661.261719	9521.221680
660.009766	9587.237305
658.757813	9569.388672
657.503906	9597.448242
656.251953	9447.911133
654.998047	9677.470703
653.746094	9496.062500
652.492188	9707.575195
651.238281	9444.486328
649.984375	9665.890625
648.728516	9450.744141
647.474609	9544.533203
646.218750	9502.814453
644.964844	9630.416016
643.708984	9572.764648
642.453125	9556.946289
641.197266	9622.750977
639.941406	9551.201172
638.685547	9348.347656
637.427734	9523.573242
636.171875	9591.318359
634.914063	9517.838867
633.656250	9573.627930
632.400391	9488.252930
631.142578	9693.086914
629.882813	9484.519531
628.625000	9730.994141
627.367188	9478.800781
626.107422	9558.358398
624.849609	9596.187500
623.589844	9786.859375
622.330078	9681.723633
621.070313	9536.941406
619.810547	9785.044922
618.548828	9685.920898
617.289063	9799.038086
616.027344	9810.987305
614.767578	9834.825195
613.505859	9955.772461
612.244141	9922.102539
610.982422	9953.828125
609.720703	10011.291016
608.457031	10094.476563
607.195313	10167.728516
605.931641	10294.402344
604.669922	10335.915039
603.406250	10322.001953
602.142578	10452.525391
600.878906	10545.412109
599.615234	10432.576172
598.349609	10341.536133
597.085938	10477.880859
595.820313	10570.686523
594.556641	10527.098633
593.291016	10704.815430
592.025391	10673.069336
590.759766	10813.160156
589.492188	10933.449219
588.226563	10755.582031
586.960938	10984.394531
585.693359	10984.195313
584.425781	11031.349609
583.158203	11060.730469
581.890625	11105.877930
580.623047	11095.792969
579.355469	11146.828125
578.087891	11233.322266
576.818359	11260.659180
575.548828	11291.926758
574.281250	11193.164063
573.011719	11383.963867
571.742188	11330.511719
570.472656	11454.268555
569.201172	11503.178711
567.931641	11506.803711
566.660156	11425.820313
565.390625	11277.984375
564.119141	11413.426758
562.847656	11489.821289
561.576172	11475.748047
560.304688	11461.679688
559.031250	11313.979492
557.759766	11529.835938
556.486328	11529.514648
555.214844	11434.916016
553.941406	11536.724609
552.667969	11416.637695
551.394531	11390.818359
550.121094	11592.662109
548.845703	11531.498047
547.572266	11472.318359
546.296875	11615.182617
545.021484	11667.785156
543.748047	11473.332031
542.472656	11782.725586
541.195313	11696.114258
539.919922	11778.046875
538.644531	11481.854492
537.367188	11646.058594
536.091797	11592.831055
534.814453	11886.166016
533.537109	11725.249023
532.259766	11787.503906
530.982422	11785.162109
529.703125	11821.946289
528.425781	11725.712891
527.148438	11825.070313
525.869141	11824.674805
524.589844	11994.342773
523.310547	11952.871094
522.031250	12149.799805
520.751953	12032.123047
519.470703	12047.309570
518.191406	12031.244141
516.910156	12106.948242
515.630859	12079.164063
514.349609	12162.633789
513.068359	12060.700195
511.787109	12212.418945
510.503906	12206.088867
509.222656	12377.217773
507.941406	12404.000000
506.658203	12325.508789
505.375000	12307.464844
504.091797	12326.449219
502.808594	12368.802734
501.525391	12623.445313
500.242188	12679.353516
498.957031	12279.643555
497.673828	12427.086914
496.388672	12340.925781
495.103516	12721.794922
493.818359	12419.665039
492.533203	12351.059570
491.248047	12381.659180
489.962891	12365.583008
488.675781	12559.452148
487.390625	12401.469727
486.103516	12402.885742
484.816406	12532.519531
483.529297	12423.194336
482.242188	12506.165039
480.955078	12398.828125
479.666016	12501.180664
478.378906	12407.472656
477.089844	12496.198242
475.800781	12588.768555
474.511719	12436.908203
473.222656	12446.064453
471.933594	12373.784180
470.644531	12305.410156
469.353516	12159.538086
468.064453	12358.634766
466.773438	12268.991211
465.482422	12202.626953
464.191406	12374.482422
462.900391	12188.080078
461.609375	12336.639648
460.316406	12301.277344
459.025391	12294.954102
457.732422	12228.660156
456.441406	12266.839844
455.148438	12295.334961
453.855469	12192.342773
452.562500	12398.681641
451.267578	12332.429688
449.974609	12416.922852
448.679688	12756.394531
447.386719	12458.326172
446.091797	12459.703125
444.796875	12540.239258
443.501953	12738.496094
442.205078	12683.844727
440.910156	12777.793945
439.615234	12636.341797
438.318359	12678.182617
437.021484	12812.573242
435.724609	12757.958984
434.427734	12953.962891
433.130859	12918.614258
431.833984	13004.673828
430.537109	13079.139648
429.238281	13186.319336
427.939453	13127.841797
426.642578	13213.788086
425.343750	13286.225586
424.042969	13214.289063
422.744141	13413.694336
421.445313	13714.982422
420.144531	13316.015625
418.845703	13471.048828
417.544922	13452.979492
416.244141	13767.472656
414.943359	13732.052734
413.642578	13756.213867
412.341797	13607.461914
411.039063	13635.478516
409.738281	13552.101563
408.435547	13608.916016
407.132813	13825.036133
405.832031	13916.319336
404.527344	13792.655273
403.224609	13615.322266
401.921875	13681.656250
400.617188	13818.917969
399.314453	13524.728516
398.009766	13407.013672
396.705078	13672.655273
395.400391	13583.699219
394.095703	13663.368164
392.791016	13612.756836
391.484375	13223.207031
390.179688	13584.349609
388.873047	13612.266602
387.566406	13414.335938
386.259766	13344.687500
384.953125	13166.019531
383.646484	13304.934570
382.339844	13265.945313
381.031250	12878.994141
379.724609	13274.034180
378.416016	12944.571289
377.107422	12875.110352
375.798828	12971.884766
374.490234	12854.694336
373.181641	12829.214844
371.871094	12862.932617
370.562500	12829.825195
369.251953	12729.930664
367.941406	12799.902344
366.630859	12738.208984
365.320313	12741.391602
364.009766	12767.456055
362.699219	12585.687500
361.386719	12480.240234
360.076172	12594.010742
358.763672	12692.491211
357.451172	12430.866211
356.138672	12550.291016
354.826172	12517.320313
353.513672	12316.812500
352.199219	12251.539063
350.886719	12445.128906
349.572266	12227.628906
348.257813	12185.241211
346.943359	12289.330078
345.628906	12193.698242
344.314453	12090.499023
343.000000	11981.638672
341.683594	12053.374023
340.369141	12225.791016
339.052734	11970.681641
337.736328	11814.444336
336.419922	11927.933594
335.103516	11904.673828
333.785156	11961.151367
332.468750	11757.590820
331.150391	11747.660156
329.833984	11855.357422
328.515625	11816.958984
327.197266	11695.134766
325.878906	11742.104492
324.560547	11586.220703
323.240234	11695.736328
321.921875	11532.343750
320.601563	11674.033203
319.281250	11669.817383
317.960938	11612.578125
316.640625	11525.066406
315.320313	11560.634766
314.000000	11743.815430
312.679688	11597.668945
311.357422	11706.985352
310.035156	11615.757813
308.712891	11562.388672
307.390625	11526.057617
306.068359	11699.573242
304.746094	11789.860352
303.423828	11832.869141
302.099609	11828.629883
300.777344	11941.502930
299.453125	11967.459961
298.128906	12033.056641
296.804688	11996.688477
295.480469	11824.443359
294.154297	12118.356445
292.830078	12214.056641
291.503906	12055.074219
290.177734	12224.297852
288.853516	12252.041992
287.527344	12253.381836
286.199219	11968.238281
284.873047	12212.719727
283.546875	12093.490234
282.218750	11904.612305
280.892578	11902.253906
279.564453	12059.941406
278.236328	11982.250977
276.908203	11955.409180
275.580078	12056.539063
274.250000	12165.154297
272.921875	12017.906250
271.591797	12241.206055
270.261719	11996.226563
268.933594	12232.601563
267.603516	12036.587891
266.271484	11910.181641
264.941406	12138.916992
263.611328	11948.673828
262.279297	12010.165039
260.947266	11930.805664
259.617188	12155.601563
258.285156	12126.921875
256.953125	12186.453125
255.619141	12125.882813
254.287109	12155.375977
252.953125	12034.822266
251.621094	12169.327148
250.287109	12262.535156
248.953125	12040.815430
247.619141	12094.658203
246.285156	12260.896484
244.951172	12322.167969
243.615234	12368.431641
242.281250	12365.993164
240.945313	12479.626953
239.609375	12424.757813
238.273438	12598.219727
236.937500	12580.768555
235.601563	12363.165039
234.263672	12555.239258
232.927734	12618.213867
231.589844	12598.904297
230.251953	12701.097656
228.914063	12623.845703
227.576172	12460.675781
226.238281	12475.037109
224.900391	12455.773438
223.560547	12501.875977
222.222656	12590.899414
220.882813	12595.891602
219.542969	12483.307617
218.203125	12667.443359
216.863281	12614.585938
215.523438	12578.536133
214.181641	12831.541992
212.841797	12760.040039
211.500000	12684.837891
210.158203	12693.531250
208.816406	12702.221680
207.474609	12720.223633
206.132813	13118.185547
204.791016	13117.476563
203.447266	12662.475586
202.105469	12905.711914
