#Wave		#Intensity
1438.076172	5089.634277
1436.968750	5046.693359
1435.863281	5054.768555
1434.755859	5022.175781
1433.650391	5104.792480
1432.542969	4898.311523
1431.435547	5037.368164
1430.328125	4966.427246
1429.220703	4976.766602
1428.113281	4919.404297
1427.003906	5029.020996
1425.896484	5079.946777
1424.787109	5063.193359
1423.679688	4972.035645
1422.570313	4923.747070
1421.460938	5078.340332
1420.351563	4944.413086
1419.242188	4889.398438
1418.132813	4895.229004
1417.021484	4898.804688
1415.912109	4972.188477
1414.802734	4818.145996
1413.691406	4995.065430
1412.580078	4996.369629
1411.468750	4961.670410
1410.357422	4978.729004
1409.246094	4887.813477
1408.134766	4909.377441
1407.023438	4982.648926
1405.910156	4977.210938
1404.798828	5063.927734
1403.685547	4997.801758
1402.574219	4978.882813
1401.460938	5061.058105
1400.347656	5131.972656
1399.234375	5095.075684
1398.121094	5177.182617
1397.007813	5005.611328
1395.892578	5022.621094
1394.779297	5093.476563
1393.664063	5038.675293
1392.550781	5037.725586
1391.435547	4942.589355
1390.320313	4952.869629
1389.205078	4958.662109
1388.089844	4982.382813
1386.974609	4970.241211
1385.857422	4899.852539
1384.742188	4972.852051
1383.625000	4992.073242
1382.509766	4897.089355
1381.392578	4869.304199
1380.275391	4906.441406
1379.158203	4992.798828
1378.041016	4935.923828
1376.923828	4984.213379
1375.806641	4925.124512
1374.687500	4866.058594
1373.570313	4847.259277
1372.451172	4750.228027
1371.332031	4849.911621
1370.214844	5025.533203
1369.095703	4968.738281
1367.976563	4945.470215
1366.855469	4984.743652
1365.736328	4780.617188
1364.617188	5027.526855
1363.496094	4830.165039
1362.376953	5072.509766
1361.255859	4901.988281
1360.134766	4959.072754
1359.013672	4935.841797
1357.892578	4807.811035
1356.771484	4954.062988
1355.650391	4774.806641
1354.529297	4985.643066
1353.406250	5018.136230
1352.285156	4856.791504
1351.162109	4942.756348
1350.039063	4857.206055
1348.917969	4994.351074
1347.794922	4953.347656
1346.671875	5057.036621
1345.546875	4909.217773
1344.423828	4968.376953
1343.300781	5040.861816
1342.175781	5031.025879
1341.052734	4998.956055
1339.927734	4900.198730
1338.802734	5146.028809
1337.677734	4987.273926
1336.552734	4944.125977
1335.427734	4898.772461
1334.302734	5068.897461
1333.175781	4994.666504
1332.050781	5015.941895
1330.923828	5050.529297
1329.798828	4991.880371
1328.671875	4962.103027
1327.544922	5025.525391
1326.417969	5017.936035
1325.291016	4950.465332
1324.164063	4973.938477
1323.035156	4995.186035
1321.908203	5051.893066
1320.779297	5033.224609
1319.652344	5083.255859
1318.523438	5022.494629
1317.394531	5052.573242
1316.265625	4978.552246
1315.136719	4964.343262
1314.007813	4936.856445
1312.878906	5008.983887
1311.748047	5005.842285
1310.619141	4931.897949
1309.488281	4953.105957
1308.357422	4965.458496
1307.228516	5030.879883
1306.097656	4948.142090
1304.966797	4894.171875
1303.833984	4963.990234
1302.703125	4987.378418
1301.572266	4973.198730
1300.439453	4928.099609
1299.308594	5013.319336
1298.175781	4981.478027
1297.042969	4750.956055
1295.910156	4842.783203
1294.777344	4969.886230
1293.644531	4854.230469
1292.511719	4908.483887
1291.378906	4962.717773
1290.244141	5034.573242
1289.111328	4837.412109
1287.976563	4699.843262
1286.841797	4925.988770
1285.707031	4808.286621
1284.572266	4717.066895
1283.437500	4804.307129
1282.302734	4836.455566
1281.167969	4725.462891
1280.033203	4814.854980
1278.896484	4921.823242
1277.759766	4903.308105
1276.625000	4898.002441
1275.488281	4855.298828
1274.351563	5001.772461
1273.214844	4884.294922
1272.078125	4850.412109
1270.939453	4838.525391
1269.802734	4868.403809
1268.666016	4799.382324
1267.527344	4895.170410
1266.388672	4747.087891
1265.251953	4871.401367
1264.113281	4859.523438
1262.974609	4876.191406
1261.833984	4895.048340
1260.695313	4823.916016
1259.556641	4805.472168
1258.416016	4776.066406
1257.277344	4865.118164
1256.136719	4807.201660
1254.998047	4771.233398
1253.857422	4864.621094
1252.716797	4815.503906
1251.576172	4797.085449
1250.433594	4901.371582
1249.292969	4878.562500
1248.152344	4899.566406
1247.009766	4830.778809
1245.869141	4899.951172
1244.726563	4909.994141
1243.583984	4926.598633
1242.441406	4908.186035
1241.298828	4881.028320
1240.156250	4853.880859
1239.013672	4850.800293
1237.869141	4825.854492
1236.726563	4770.311035
1235.582031	4937.740234
1234.437500	4934.645996
1233.294922	4916.257813
1232.150391	4895.691406
1231.005859	4964.685059
1229.859375	5059.858398
1228.714844	4921.373535
1227.570313	4970.676758
1226.423828	4937.023438
1225.279297	4901.200195
1224.132813	4937.389160
1222.986328	4840.499512
1221.839844	4950.839844
1220.693359	5091.666992
1219.546875	5005.703125
1218.400391	5074.535645
1217.253906	4951.557129
1216.105469	5002.941895
1214.958984	5004.200195
1213.810547	5101.298340
1212.662109	4958.804688
1211.515625	5036.278320
1210.367188	5063.652832
1209.218750	5006.130859
1208.068359	4929.043945
1206.919922	4954.247070
1205.771484	5079.508301
1204.621094	4939.375488
1203.472656	5049.371094
1202.322266	5094.100586
1201.171875	4971.432129
1200.021484	5068.320313
1198.871094	5030.447754
1197.720703	5064.284668
1196.570313	5104.625000
1195.417969	4916.913086
1194.267578	5100.577148
1193.115234	4991.090332
1191.962891	4977.148926
1190.812500	4876.405762
1189.660156	5144.562500
1188.507813	4933.186523
1187.353516	5110.136719
1186.201172	5078.836914
1185.048828	5110.426270
1183.894531	5120.325684
1182.742188	5043.525879
1181.587891	5103.274414
1180.433594	5009.172852
1179.279297	5179.381836
1178.125000	5154.605957
1176.970703	5010.741699
1175.816406	5081.265625
1174.662109	4991.582520
1173.505859	5148.652344
1172.351563	5154.197266
1171.195313	5151.086426
1170.039063	5154.465332
1168.884766	5170.818848
1167.728516	5146.083496
1166.570313	5205.668457
1165.414063	5230.648438
1164.257813	5190.788086
1163.101563	5280.580566
1161.943359	5251.526367
1160.785156	5125.290527
1159.628906	5258.232910
1158.470703	5244.312012
1157.312500	5206.650391
1156.154297	5363.245117
1154.996094	5202.578125
1153.835938	5242.612793
1152.677734	5355.972656
1151.517578	5316.167480
1150.359375	5414.377930
1149.199219	5322.835938
1148.039063	5477.050781
1146.878906	5469.577637
1145.718750	5481.500000
1144.558594	5418.017090
1143.398438	5496.714355
1142.236328	5336.344727
1141.076172	5481.773438
1139.914063	5670.202148
1138.753906	5557.239258
1137.591797	5687.482422
1136.429688	5632.648438
1135.267578	5644.518555
1134.105469	5647.781250
1132.941406	5722.002930
1131.779297	5785.447266
1130.615234	5704.850098
1129.453125	5884.327148
1128.289063	5767.211914
1127.125000	5789.781738
1125.960938	5745.756836
1124.796875	5918.650879
1123.632813	6012.035645
1122.468750	5910.030762
1121.304688	5954.016113
1120.138672	6017.298828
1118.974609	6106.304688
1117.808594	5965.743164
1116.642578	6185.557129
1115.476563	6244.460449
1114.310547	6284.045898
1113.144531	6068.528320
1111.978516	6172.427246
1110.812500	6295.572754
1109.644531	6283.700684
1108.476563	6357.513184
1107.310547	6442.006348
1106.142578	6644.235840
1104.974609	6595.912598
1103.806641	6515.500488
1102.638672	6490.758789
1101.470703	6562.310059
1100.300781	6830.646484
1099.132813	6639.027832
1097.962891	6787.496094
1096.794922	6747.758789
1095.625000	6742.238770
1094.455078	6835.035645
1093.285156	6908.565918
1092.115234	6973.522461
1090.945313	6931.649902
1089.773438	6970.949219
1088.603516	7014.504395
1087.431641	7107.145996
1086.261719	7069.546875
1085.089844	7125.863770
1083.917969	7180.024902
1082.746094	7180.832520
1081.574219	7228.564453
1080.402344	7216.566895
1079.228516	7375.145996
1078.056641	7316.226074
1076.882813	7478.990234
1075.710938	7424.333984
1074.537109	7557.188965
1073.363281	7494.017090
1072.189453	7622.549805
1071.015625	7744.646484
1069.841797	7755.988770
1068.666016	7756.683594
1067.492188	7880.814941
1066.316406	7662.318848
1065.142578	7877.900391
1063.966797	7959.397949
1062.791016	8006.838867
1061.615234	7977.716309
1060.439453	7884.828125
1059.263672	8010.897461
1058.085938	8236.797852
1056.910156	8224.650391
1055.732422	8206.133789
1054.556641	8145.145508
1053.378906	8436.681641
1052.201172	8481.827148
1051.023438	8408.083984
1049.845703	8482.930664
1048.667969	8500.457031
1047.488281	8477.666992
1046.310547	8628.818359
1045.130859	8716.291016
1043.953125	8636.222656
1042.773438	8829.659180
1041.593750	8758.076172
1040.414063	8909.034180
1039.234375	8894.668945
1038.054688	8922.677734
1036.873047	8923.140625
1035.693359	8936.308594
1034.511719	9010.871094
1033.332031	9019.783203
1032.150391	9115.464844
1030.968750	9037.596680
1029.787109	9300.375000
1028.605469	9197.116211
1027.423828	9337.104492
1026.240234	9350.171875
1025.058594	9591.553711
1023.875000	9454.497070
1022.693359	9630.256836
1021.509766	9512.258789
1020.326172	9586.541016
1019.142578	9339.754883
1017.958984	9728.686523
1016.773438	9661.427734
1015.589844	9718.737305
1014.406250	9710.598633
1013.220703	9700.352539
1012.035156	9911.633789
1010.849609	9812.758789
1009.666016	9827.804688
1008.478516	9863.930664
1007.292969	9830.472656
1006.107422	9881.337891
1004.921875	9809.954102
1003.734375	9890.300781
1002.548828	10010.642578
1001.361328	10008.778320
1000.173828	9787.908203
998.986328	9912.411133
997.798828	9897.933594
996.611328	10037.101563
995.423828	10110.984375
994.234375	10094.372070
993.046875	10044.110352
991.857422	9922.361328
990.667969	10107.651367
989.478516	10074.231445
988.289063	9939.931641
987.099609	9942.280273
985.910156	10058.087891
984.720703	10026.799805
983.529297	10064.834961
982.339844	10140.654297
981.148438	10161.855469
979.957031	10010.916992
978.767578	10113.986328
977.576172	10078.522461
976.382813	9994.817383
975.191406	10087.341797
974.000000	9907.194336
972.806641	9970.343750
971.615234	9838.500977
970.421875	10121.721680
969.228516	9922.838867
968.037109	9809.934570
966.841797	9984.066406
965.648438	10074.354492
964.455078	9923.790039
963.261719	9972.180664
962.066406	10066.605469
960.873047	9792.644531
959.677734	9970.765625
958.482422	9935.423828
957.287109	9941.929688
956.091797	9881.509766
954.896484	9869.203125
953.701172	10019.962891
952.503906	10005.542969
951.308594	9892.910156
950.111328	9813.748047
948.914063	9830.708984
947.718750	10029.368164
946.521484	9866.695313
945.322266	9937.916992
944.125000	9917.264648
942.927734	9856.966797
941.730469	9738.265625
940.531250	9799.023438
939.332031	10078.771484
938.134766	9776.573242
936.935547	9933.200195
935.736328	9973.027344
934.537109	9954.478516
933.335938	9846.329102
932.136719	9865.312500
930.935547	9925.950195
929.736328	9792.873047
928.535156	9999.261719
927.333984	9878.710938
926.132813	10080.841797
924.931641	9691.852539
923.730469	9893.941406
922.529297	9912.881836
921.328125	9879.815430
920.125000	9852.999023
918.921875	9809.559570
917.720703	9901.256836
916.517578	9893.155273
915.314453	9596.213867
914.111328	9679.586914
912.908203	9632.062500
911.703125	9858.697266
910.500000	9669.958008
909.294922	9763.631836
908.091797	9736.880859
906.886719	9720.516602
905.681641	9670.958984
904.476563	9638.016602
903.271484	9665.233398
902.064453	9545.207031
900.859375	9543.403320
899.654297	9595.496094
898.447266	9583.320313
897.240234	9473.757813
896.033203	9233.717773
894.826172	9246.470703
893.619141	9375.191406
892.412109	9443.817383
891.205078	9433.750000
889.996094	9465.081055
888.789063	9388.791016
887.580078	9242.184570
886.371094	9122.524414
885.164063	8845.724609
883.955078	9106.662109
882.744141	9055.318359
881.535156	8933.714844
880.326172	8973.354492
879.115234	8901.400391
877.906250	8784.025391
876.695313	8867.042969
875.484375	8888.077148
874.273438	8816.191406
873.062500	8729.882813
871.851563	8752.993164
870.640625	8699.744141
869.427734	8716.660156
868.216797	8554.112305
867.003906	8519.490234
865.791016	8742.623047
864.578125	8662.623047
863.365234	8450.739258
862.152344	8494.469727
860.939453	8507.277344
859.726563	8377.940430
858.511719	8203.341797
857.298828	8298.563477
856.083984	8443.160156
854.869141	8451.845703
853.654297	8133.301270
852.439453	8279.902344
851.224609	8315.355469
850.007813	8219.157227
848.792969	8131.220703
847.576172	8248.922852
846.361328	8156.901367
845.144531	8159.457520
843.927734	8090.090820
842.710938	8078.275391
841.494141	8013.057617
840.277344	8099.838867
839.058594	8096.240234
837.841797	7928.408203
836.623047	7836.583496
835.404297	8046.458008
834.187500	7874.626465
832.968750	7858.763184
831.750000	7859.312988
830.529297	8120.285156
829.310547	7985.471680
828.091797	7865.057129
826.871094	8103.333984
825.650391	7933.765625
824.429688	8028.533691
823.210938	8014.708496
821.988281	8019.318848
820.767578	7903.127441
819.546875	7844.297363
818.326172	7943.082031
817.103516	7871.988281
815.880859	8060.747070
814.660156	7913.974121
813.437500	7873.601074
812.214844	7925.254883
810.992188	7886.938477
809.767578	7834.328613
808.544922	7977.916992
807.322266	7892.618652
806.097656	7978.942383
804.873047	8036.640137
803.648438	8012.636230
802.423828	7962.101074
801.199219	7919.749512
799.974609	7993.737793
798.750000	7963.637207
797.523438	7913.147949
796.298828	7948.340820
795.072266	8152.773926
793.845703	8002.373535
792.619141	7951.913086
791.392578	8007.449219
790.166016	7954.968262
788.939453	8053.263672
787.710938	7980.424316
786.484375	7927.977539
785.255859	7930.523926
784.027344	7959.532715
782.798828	7874.553223
781.570313	7974.782227
780.341797	7932.556152
779.113281	8000.187988
777.884766	8126.771484
776.654297	7962.539063
775.423828	7818.698242
774.195313	7971.665039
772.964844	7919.323730
771.734375	8007.194336
770.503906	8034.089355
769.273438	8056.911133
768.041016	8146.732910
766.810547	8106.586914
765.578125	7956.846191
764.345703	8109.545410
763.115234	8041.021484
761.882813	7994.838379
760.648438	8029.802246
759.416016	8014.056152
758.183594	8146.319336
756.949219	8010.958496
755.716797	8015.489746
754.482422	8048.386719
753.248047	8148.124512
752.013672	7895.386719
750.779297	8189.524414
749.544922	8025.962402
748.310547	7977.849609
747.074219	8188.817871
745.839844	7970.713867
744.603516	8084.489258
743.367188	8186.083984
742.130859	8158.207520
740.894531	8130.340820
739.658203	8017.578613
738.421875	8064.532715
737.185547	8133.696777
735.947266	8200.813477
734.708984	8231.542969
733.472656	8096.651367
732.234375	8068.830566
730.996094	8190.413574
729.755859	8184.787109
728.517578	8062.114746
727.279297	8139.238281
726.039063	7994.431641
724.800781	8087.671875
723.560547	7973.177246
722.320313	8050.255859
721.080078	8197.853516
719.839844	8168.045410
718.599609	8180.561523
717.357422	8138.680176
716.117188	8096.814941
714.875000	8169.748047
713.632813	8117.824707
712.390625	8200.789063
711.148438	8241.457031
709.906250	8129.183105
708.664063	8095.412109
707.421875	8188.370605
706.177734	7997.742188
704.935547	8092.693359
703.691406	8004.677246
702.447266	8296.551758
701.203125	8037.727051
699.958984	8263.181641
698.714844	8221.397461
697.468750	8231.843750
696.224609	8089.687500
694.978516	8106.176758
693.732422	8333.402344
692.486328	8167.227539
691.240234	8358.238281
689.994141	8312.476563
688.748047	8116.318359
687.501953	8160.851074
686.253906	8379.777344
685.007813	8177.706543
683.759766	8320.392578
682.511719	8172.507324
681.263672	8349.191406
680.015625	8189.340332
678.767578	8337.917969
677.517578	8404.354492
676.269531	8404.712891
675.019531	8234.966797
673.769531	8333.396484
672.521484	8289.756836
671.271484	8284.133789
670.019531	8444.483398
668.769531	8300.883789
667.519531	8267.276367
666.267578	8223.689453
665.017578	8286.016602
663.765625	8342.326172
662.513672	8302.743164
661.261719	8329.072266
660.009766	8183.690918
658.757813	8347.764648
657.503906	8322.178711
656.251953	8358.458008
654.998047	8416.666992
653.746094	8293.347656
652.492188	8307.673828
651.238281	8234.267578
649.984375	8256.572266
648.728516	8426.348633
647.474609	8337.019531
646.218750	8207.881836
644.964844	8349.680664
643.708984	8342.066406
642.453125	8248.839844
641.197266	8408.460938
639.941406	8404.818359
638.685547	8484.750000
637.427734	8212.514648
636.171875	8354.113281
634.914063	8302.753906
633.656250	8227.553711
632.400391	8339.246094
631.142578	8361.455078
629.882813	8423.398438
628.625000	8292.603516
627.367188	8396.247070
626.107422	8132.449219
624.849609	8460.450195
623.589844	8244.386719
622.330078	8373.757813
621.070313	8493.156250
619.810547	8382.363281
618.548828	8491.793945
617.289063	8418.724609
616.027344	8456.721680
614.767578	8601.754883
613.505859	8584.202148
612.244141	8608.271484
610.982422	8648.180664
609.720703	8680.149414
608.457031	8603.179688
607.195313	8997.499023
605.931641	8855.165039
604.669922	8938.528320
603.406250	8849.691406
602.142578	8950.828125
600.878906	9091.486328
599.615234	9081.780273
598.349609	9034.507813
597.085938	8979.345703
595.820313	9161.393555
594.556641	9149.702148
593.291016	9213.095703
592.025391	9209.299805
590.759766	9256.855469
589.492188	9334.009766
588.226563	9304.525391
586.960938	9561.258789
585.693359	9521.873047
584.425781	9561.423828
583.158203	9516.134766
581.890625	9585.253906
580.623047	9660.260742
579.355469	9630.749023
578.087891	9729.369141
576.818359	9524.460938
575.548828	9591.537109
574.281250	9668.435547
573.011719	9715.759766
571.742188	9765.034180
570.472656	9802.475586
569.201172	9774.946289
567.931641	9782.849609
566.660156	9812.393555
565.390625	9706.187500
564.119141	9769.168945
562.847656	9967.808594
561.576172	9800.686523
560.304688	9940.270508
559.031250	9832.175781
557.759766	9928.469727
556.486328	9728.089844
555.214844	9616.171875
553.941406	9767.432617
552.667969	9859.734375
551.394531	9859.742188
550.121094	9857.786133
548.845703	9865.640625
547.572266	9928.420898
546.296875	9951.948242
545.021484	9730.344727
543.748047	10022.500977
542.472656	9959.745117
541.195313	10012.642578
539.919922	9908.764648
538.644531	10081.150391
537.367188	10145.742188
536.091797	10069.314453
534.814453	10061.440430
533.537109	10080.973633
532.259766	10141.597656
530.982422	10022.181641
529.703125	9957.588867
528.425781	10143.377930
527.148438	10160.916992
525.869141	10008.351563
524.589844	10131.466797
523.310547	10236.942383
522.031250	10154.793945
520.751953	10195.753906
519.470703	10373.420898
518.191406	10359.641602
516.910156	10441.535156
515.630859	10240.351563
514.349609	10384.687500
513.068359	10450.916016
511.787109	10423.475586
510.503906	10269.264648
509.222656	10436.878906
507.941406	10467.947266
506.658203	10417.130859
505.375000	10494.963867
504.091797	10596.147461
502.808594	10475.201172
501.525391	10632.832031
500.242188	10698.874023
498.957031	10710.373047
497.673828	10618.696289
496.388672	10585.443359
495.103516	10709.813477
493.818359	10602.626953
492.533203	10540.218750
491.248047	10573.124023
489.962891	10672.120117
488.675781	10650.555664
487.390625	10652.320313
486.103516	10636.596680
484.816406	10632.535156
483.529297	10694.513672
482.242188	10585.575195
480.955078	10760.148438
479.666016	10513.416016
478.378906	10552.077148
477.089844	10662.517578
475.800781	10561.451172
474.511719	10392.538086
473.222656	10491.306641
471.933594	10425.233398
470.644531	10527.832031
469.353516	10545.114258
468.064453	10612.769531
466.773438	10523.474609
465.482422	10430.340820
464.191406	10468.927734
462.900391	10342.926758
461.609375	10559.605469
460.316406	10410.411133
459.025391	10330.934570
457.732422	10423.670898
456.441406	10553.118164
455.148438	10349.894531
453.855469	10436.769531
452.562500	10604.796875
451.267578	10552.431641
449.974609	10575.447266
448.679688	10573.336914
447.386719	10598.269531
446.091797	10549.807617
444.796875	10516.810547
443.501953	10721.261719
442.205078	10632.273438
440.910156	10703.476563
439.615234	10633.819336
438.318359	10967.313477
437.021484	10828.205078
435.724609	10976.433594
434.427734	10983.880859
433.130859	10925.797852
431.833984	11010.329102
430.537109	11123.722656
429.238281	11009.787109
427.939453	11153.947266
426.642578	11165.198242
425.343750	10985.872070
424.042969	11316.635742
422.744141	11173.909180
421.445313	11441.015625
420.144531	11342.559570
418.845703	11311.450195
417.544922	11361.105469
416.244141	11547.222656
414.943359	11560.293945
413.642578	11386.970703
412.341797	11476.913086
411.039063	11580.264648
409.738281	11691.255859
408.435547	11552.602539
407.132813	11385.210938
405.832031	11377.181641
404.527344	11413.288086
403.224609	11518.444336
401.921875	11554.506836
400.617188	11525.353516
399.314453	11459.782227
398.009766	11493.916992
396.705078	11434.126953
395.400391	11391.606445
394.095703	11483.206055
392.791016	11471.337891
391.484375	11352.233398
390.179688	11298.272461
388.873047	11430.016602
387.566406	11324.386719
386.259766	11224.539063
384.953125	11402.131836
383.646484	11195.195313
382.339844	11231.208984
381.031250	11248.087891
379.724609	11048.951172
378.416016	11157.597656
377.107422	11006.328125
375.798828	11145.504883
374.490234	10961.826172
373.181641	11106.685547
371.871094	10993.731445
370.562500	10898.001953
369.251953	10867.200195
367.941406	10866.941406
366.630859	10910.561523
365.320313	10957.978516
364.009766	10988.212891
362.699219	10972.675781
361.386719	10938.081055
360.076172	10812.019531
358.763672	10988.980469
357.451172	10737.219727
356.138672	10889.363281
354.826172	10854.819336
353.513672	10707.954102
352.199219	10856.204102
350.886719	10619.945313
349.572266	10699.651367
348.257813	10541.517578
346.943359	10607.892578
345.628906	10558.236328
344.314453	10451.560547
343.000000	10472.290039
341.683594	10411.287109
340.369141	10318.004883
339.052734	10416.639648
337.736328	10443.056641
336.419922	10064.965820
335.103516	10131.314453
333.785156	10271.668945
332.468750	10317.072266
331.150391	10341.583984
329.833984	9999.934570
328.515625	10174.344727
327.197266	9988.369141
325.878906	10109.624023
324.560547	10149.316406
323.240234	9912.283203
321.921875	10186.966797
320.601563	10215.252930
319.281250	10082.525391
317.960938	10188.464844
316.640625	10103.129883
315.320313	10131.410156
314.000000	10191.852539
312.679688	10203.072266
311.357422	10163.207031
310.035156	10210.366211
308.712891	10053.264648
307.390625	10287.611328
306.068359	10313.923828
304.746094	10296.754883
303.423828	10413.756836
302.099609	10413.577148
300.777344	10213.177734
299.453125	10303.686523
298.128906	10424.369141
296.804688	10577.095703
295.480469	10593.870117
294.154297	10642.716797
292.830078	10734.937500
291.503906	10668.674805
290.177734	10800.456055
288.853516	10745.519531
287.527344	10756.583984
286.199219	10697.908203
284.873047	10665.637695
283.546875	10456.281250
282.218750	10395.816406
280.892578	10482.269531
279.564453	10489.606445
278.236328	10436.700195
276.908203	10329.232422
275.580078	10553.000000
274.250000	10479.416992
272.921875	10264.785156
271.591797	10430.131836
270.261719	10317.130859
268.933594	10422.244141
267.603516	10352.517578
266.271484	10433.153320
264.941406	10183.087891
263.611328	10372.673828
262.279297	10117.084961
260.947266	10289.708984
259.617188	10437.860352
258.285156	10283.765625
256.953125	10332.400391
255.619141	10264.692383
254.287109	10367.710938
252.953125	10356.286133
251.621094	10442.370117
250.287109	10387.816406
248.953125	10620.059570
247.619141	10438.061523
246.285156	10576.522461
244.951172	10499.505859
243.615234	10636.027344
242.281250	10710.702148
240.945313	10629.960938
239.609375	10854.348633
238.273438	10511.616211
236.937500	10720.970703
235.601563	10731.953125
234.263672	10572.735352
232.927734	10776.343750
231.589844	10877.047852
230.251953	10815.092773
228.914063	10601.788086
227.576172	10737.966797
226.238281	10784.424805
224.900391	10694.521484
223.560547	10703.622070
222.222656	10682.848633
220.882813	10768.479492
219.542969	10659.987305
218.203125	10706.406250
216.863281	10806.906250
215.523438	10739.503906
214.181641	10892.171875
212.841797	10681.219727
211.500000	10628.794922
210.158203	10725.484375
208.816406	10810.957031
207.474609	10820.014648
206.132813	10925.922852
204.791016	10927.505859
203.447266	10876.957031
202.105469	10820.842773
