#Wave		#Intensity
1319.062500	5933.889648
1317.935547	6217.722656
1316.808594	6023.718750
1315.679688	6069.182129
1314.552734	6380.578613
1313.423828	7035.319336
1312.294922	7685.392578
1311.167969	7030.567383
1310.039063	6318.396484
1308.908203	5956.334473
1307.779297	6065.952637
1306.650391	6306.125000
1305.521484	6205.399902
1304.390625	6000.716797
1303.261719	6010.695313
1302.130859	6146.746094
1301.000000	6030.641602
1299.869141	5972.066406
1298.738281	6057.204590
1297.607422	6058.321777
1296.476563	5918.007813
1295.343750	6000.899414
1294.212891	6015.280273
1293.080078	6053.950684
1291.949219	5907.112305
1290.816406	5795.653320
1289.683594	5856.416504
1288.550781	5906.122070
1287.417969	5977.875977
1286.285156	5879.721191
1285.152344	5737.483887
1284.017578	6001.105469
1282.884766	5805.975098
1281.750000	5877.681152
1280.617188	5819.308594
1279.482422	5752.141602
1278.347656	5859.073730
1277.212891	5835.984863
1276.078125	5867.971191
1274.943359	5860.304688
1273.806641	5744.747559
1272.671875	5774.531250
1271.535156	5777.890137
1270.400391	5752.638672
1269.263672	5760.400879
1268.126953	5977.151367
1266.990234	5852.898926
1265.853516	5821.053711
1264.716797	5820.001953
1263.580078	5961.840820
1262.441406	5516.783203
1261.304688	5759.711426
1260.166016	5815.795898
1259.029297	5942.155273
1257.890625	5734.625977
1256.751953	5852.169922
1255.613281	5912.586914
1254.474609	5856.639160
1253.335938	5917.033203
1252.195313	5815.023438
1251.056641	5835.911621
1249.916016	5843.630371
1248.777344	5746.074707
1247.636719	5808.625488
1246.496094	5634.377930
1245.355469	5681.582031
1244.214844	5816.431641
1243.074219	5745.261719
1241.933594	5722.314453
1240.791016	5699.375488
1239.650391	5882.302734
1238.507813	6016.992676
1237.367188	5842.957520
1236.224609	5883.487305
1235.082031	5757.683594
1233.939453	5894.485352
1232.796875	5773.100098
1231.654297	5879.228027
1230.509766	5884.724121
1229.367188	5879.285645
1228.222656	5924.127441
1227.080078	5789.731445
1225.935547	5900.129395
1224.791016	5918.724121
1223.646484	6000.661133
1222.501953	6023.598145
1221.357422	5847.814941
1220.212891	5938.452148
1219.066406	6050.884766
1217.921875	6041.058105
1216.775391	5996.322266
1215.628906	5742.161133
1214.484375	5882.903320
1213.337891	5833.857422
1212.191406	6020.321777
1211.042969	5875.344238
1209.896484	5811.067383
1208.750000	5892.827148
1207.601563	6005.061523
1206.455078	6021.400391
1205.306641	6013.773438
1204.158203	5827.576660
1203.011719	5922.321289
1201.863281	5999.616211
1200.712891	5937.584961
1199.564453	5860.342285
1198.416016	5915.848145
1197.267578	5886.494629
1196.117188	5965.899414
1194.966797	5858.263184
1193.818359	5841.979980
1192.667969	5958.303223
1191.517578	5965.914551
1190.367188	5804.030273
1189.216797	5622.651855
1188.064453	5953.975586
1186.914063	5881.224609
1185.763672	5834.556641
1184.611328	5635.935059
1183.458984	5997.402832
1182.306641	5959.419434
1181.156250	5858.524414
1180.003906	5857.459473
1178.849609	5958.339355
1177.697266	5853.161133
1176.544922	5795.722656
1175.390625	5838.025391
1174.238281	5973.513672
1173.083984	5937.753906
1171.929688	5995.174316
1170.777344	6015.746094
1169.623047	6081.793945
1168.466797	5855.476563
1167.312500	6075.250488
1166.158203	5753.769531
1165.003906	6075.203613
1163.847656	6063.278320
1162.691406	5979.960449
1161.537109	5946.424805
1160.380859	6055.641113
1159.224609	6264.285156
1158.068359	6267.467773
1156.912109	6084.756348
1155.753906	6217.639160
1154.597656	6240.274902
1153.441406	6185.128418
1152.283203	6186.161133
1151.125000	6213.108398
1149.966797	6084.583984
1148.808594	6307.989258
1147.650391	6233.453613
1146.492188	6230.158691
1145.333984	6341.218262
1144.175781	6327.118652
1143.015625	6287.141602
1141.857422	6344.218262
1140.697266	6168.421875
1139.537109	6249.210938
1138.376953	6308.417480
1137.216797	6613.255859
1136.056641	6424.610352
1134.896484	6436.361816
1133.736328	6456.723633
1132.574219	6550.289063
1131.414063	6318.733398
1130.251953	6517.761719
1129.089844	6578.982422
1127.927734	6638.028320
1126.765625	6576.578613
1125.603516	6663.564941
1124.441406	6658.045898
1123.279297	6512.770020
1122.115234	6584.670410
1120.953125	6721.025391
1119.789063	6786.414063
1118.625000	6817.401855
1117.462891	6822.599609
1116.298828	6842.829590
1115.132813	6848.020020
1113.968750	6997.056641
1112.804688	6920.645020
1111.640625	7028.835449
1110.474609	7214.234863
1109.308594	7135.679199
1108.144531	7012.105957
1106.978516	7212.418457
1105.812500	7243.261230
1104.646484	7256.941895
1103.480469	7309.199219
1102.312500	7361.436523
1101.146484	7327.947754
1099.980469	7425.150391
1098.812500	7359.532715
1097.644531	7394.589355
1096.476563	7408.221680
1095.310547	7595.246094
1094.140625	7782.201660
1092.972656	7568.921875
1091.804688	7484.091797
1090.636719	7747.972656
1089.466797	7509.149902
1088.298828	7674.563965
1087.128906	7553.429688
1085.958984	7714.499023
1084.789063	7648.967773
1083.619141	7886.883789
1082.449219	7752.979004
1081.279297	7969.427734
1080.107422	7974.371094
1078.937500	8073.261719
1077.765625	8097.396484
1076.595703	8213.302734
1075.423828	8254.474609
1074.251953	8103.601563
1073.080078	8319.704102
1071.908203	8303.245117
1070.736328	8169.505371
1069.562500	8101.908203
1068.390625	8360.484375
1067.216797	8518.793945
1066.044922	8485.263672
1064.871094	8353.741211
1063.697266	8556.695313
1062.523438	8542.342773
1061.349609	8819.712891
1060.173828	8896.860352
1059.000000	8673.852539
1057.826172	8887.200195
1056.650391	8779.174805
1055.474609	8892.436523
1054.300781	8724.893555
1053.125000	8761.564453
1051.949219	9023.598633
1050.773438	9083.583984
1049.595703	9058.530273
1048.419922	9071.735352
1047.244141	9367.511719
1046.066406	9287.187500
1044.888672	9287.598633
1043.710938	9355.958984
1042.535156	9496.478516
1041.357422	9566.897461
1040.177734	9452.650391
1039.000000	9595.195313
1037.822266	9623.125000
1036.642578	9778.309570
1035.464844	9914.350586
1034.285156	10046.100586
1033.105469	9851.331055
1031.925781	9811.359375
1030.746094	9921.861328
1029.566406	9932.740234
1028.386719	10206.292969
1027.207031	10121.804688
1026.025391	10272.399414
1024.845703	10302.258789
1023.664063	10120.424805
1022.482422	10205.326172
1021.300781	10249.990234
1020.119141	10421.575195
1018.937500	10256.774414
1017.755859	10233.727539
1016.574219	10390.416992
1015.390625	10435.002930
1014.207031	10545.095703
1013.025391	10553.708984
1011.841797	10560.206055
1010.658203	10712.461914
1009.474609	10511.939453
1008.291016	10621.912109
1007.107422	10508.043945
1005.921875	10881.841797
1004.738281	10829.170898
1003.552734	10717.435547
1002.367188	10631.057617
1001.183594	10610.101563
999.998047	10964.549805
998.812500	10732.680664
997.626953	10711.715820
996.439453	10806.686523
995.253906	10570.757813
994.066406	10815.316406
992.880859	10733.256836
991.693359	10990.330078
990.505859	11059.887695
989.318359	10908.345703
988.130859	10838.957031
986.943359	10836.943359
985.755859	11062.191406
984.566406	10961.251953
983.378906	10868.763672
982.189453	10883.568359
981.001953	10648.142578
979.812500	10948.896484
978.623047	11106.606445
977.433594	10967.939453
976.242188	10797.806641
975.052734	10982.764648
973.863281	10648.862305
972.671875	10919.875977
971.482422	10915.743164
970.291016	10915.809570
969.099609	10974.641602
967.908203	10811.019531
966.716797	10882.435547
965.525391	10754.549805
964.332031	10605.738281
963.140625	10817.639648
961.947266	10775.790039
960.755859	10861.815430
959.562500	10750.814453
958.369141	11044.243164
957.175781	10797.080078
955.982422	10918.641602
954.789063	10941.732422
953.593750	10989.939453
952.400391	10826.701172
951.205078	10793.285156
950.009766	10718.030273
948.816406	10852.018555
947.621094	10764.228516
946.425781	10793.587891
945.230469	10862.664063
944.033203	10868.996094
942.837891	10808.438477
941.640625	10770.890625
940.445313	10643.510742
939.248047	10881.758789
938.050781	10631.174805
936.853516	10938.247070
935.656250	11019.713867
934.458984	10825.604492
933.261719	10765.139648
932.062500	10604.536133
930.865234	10790.316406
929.666016	10767.436523
928.466797	10581.894531
927.269531	10832.211914
926.070313	10803.080078
924.869141	10851.080078
923.669922	10730.260742
922.470703	10917.852539
921.269531	10644.993164
920.070313	10867.936523
918.869141	10593.105469
917.667969	10761.841797
916.466797	10653.660156
915.265625	10843.132813
914.064453	10724.571289
912.863281	10780.809570
911.662109	10664.382813
910.458984	10818.354492
909.257813	10633.346680
908.054688	10672.926758
906.851563	10546.211914
905.648438	10745.804688
904.445313	10608.734375
903.242188	10569.348633
902.039063	10448.976563
900.833984	10710.731445
899.630859	10683.802734
898.425781	10467.991211
897.220703	10519.980469
896.015625	10750.396484
894.810547	10625.973633
893.605469	10505.744141
892.400391	10277.722656
891.195313	10319.328125
889.988281	10342.260742
888.783203	10278.133789
887.576172	10315.569336
886.369141	10205.889648
885.162109	9945.035156
883.955078	10187.544922
882.748047	10111.080078
881.541016	10307.919922
880.332031	10136.245117
879.125000	9991.537109
877.916016	9906.887695
876.707031	10169.813477
875.500000	9909.353516
874.291016	10039.831055
873.082031	9982.111328
871.871094	9862.398438
870.662109	9841.934570
869.453125	10036.380859
868.242188	9869.206055
867.031250	9939.636719
865.822266	9896.453125
864.611328	9944.137695
863.400391	9717.235352
862.187500	9919.737305
860.976563	9604.187500
859.765625	9788.063477
858.552734	9520.101563
857.341797	9984.418945
856.128906	9728.892578
854.916016	9712.619141
853.703125	9519.079102
852.490234	9746.037109
851.277344	9630.863281
850.064453	9587.835938
848.849609	9787.873047
847.636719	9540.956055
846.421875	9427.963867
845.207031	9615.564453
843.992188	9292.666016
842.777344	9270.326172
841.562500	9398.183594
840.347656	9466.338867
839.130859	9446.033203
837.916016	9388.721680
836.699219	9393.107422
835.482422	9510.540039
834.267578	9323.779297
833.050781	9393.921875
831.833984	9390.083008
830.615234	9357.491211
829.398438	9433.745117
828.181641	9579.775391
826.962891	9325.471680
825.744141	9617.180664
824.527344	9752.831055
823.308594	9677.121094
822.089844	9455.806641
820.869141	9638.576172
819.650391	9382.496094
818.431641	9499.609375
817.210938	9555.189453
815.992188	9536.976563
814.771484	9576.136719
813.550781	9605.039063
812.330078	9570.441406
811.109375	9593.189453
809.888672	9403.014648
808.666016	9589.533203
807.445313	9491.521484
806.222656	9461.066406
805.001953	9727.248047
803.779297	9723.347656
802.556641	9709.222656
801.333984	9864.798828
800.109375	9666.679688
798.886719	9683.228516
797.664063	9587.385742
796.439453	9636.629883
795.216797	9495.894531
793.992188	9708.509766
792.767578	9753.616211
791.542969	9661.930664
790.318359	9666.208008
789.091797	9699.050781
787.867188	9715.558594
786.642578	9791.214844
785.416016	9738.356445
784.189453	9909.813477
782.962891	9630.659180
781.736328	9828.567383
780.509766	9826.686523
779.283203	10061.155273
778.056641	9598.842773
776.828125	9890.291992
775.601563	9865.999023
774.373047	9845.786133
773.144531	9884.610352
771.916016	9754.501953
770.687500	9766.875977
769.458984	9769.072266
768.230469	9919.749023
767.000000	9883.275391
765.771484	9688.225586
764.541016	10033.978516
763.310547	9975.145508
762.080078	9989.488281
760.849609	9914.431641
759.619141	9833.309570
758.388672	9995.921875
757.156250	9675.217773
755.925781	9774.864258
754.693359	9815.610352
753.462891	9917.219727
752.230469	10032.991211
750.998047	9765.326172
749.765625	9826.321289
748.531250	9905.541992
747.298828	10080.017578
746.064453	10041.593750
744.832031	10017.369141
743.597656	10100.541992
742.363281	9946.664063
741.128906	10062.223633
739.894531	10155.461914
738.660156	10088.718750
737.425781	9880.304688
736.189453	10105.072266
734.955078	9979.695313
733.718750	10216.494141
732.482422	10172.049805
731.246094	10178.178711
730.009766	10040.749023
728.773438	10063.071289
727.537109	10210.694336
726.298828	9907.636719
725.062500	10105.739258
723.824219	10018.951172
722.585938	10146.269531
721.347656	10025.180664
720.109375	10481.508789
718.871094	10059.660156
717.632813	10156.599609
716.392578	10358.416992
715.154297	10350.364258
713.914063	10358.449219
712.673828	10243.527344
711.433594	10221.386719
710.193359	10330.272461
708.953125	10600.336914
707.712891	10477.394531
706.472656	10586.165039
705.230469	10525.708984
703.988281	10435.069336
702.748047	10630.355469
701.505859	10573.949219
700.263672	10620.204102
699.021484	10835.460938
697.777344	10869.574219
696.535156	10939.878906
695.291016	11032.276367
694.048828	11068.340820
692.804688	11132.533203
691.560547	10981.649414
690.316406	11202.567383
689.072266	11411.344727
687.828125	11423.192383
686.582031	11533.439453
685.337891	11898.643555
684.091797	11866.222656
682.847656	11926.140625
681.601563	11925.833008
680.355469	12260.579102
679.109375	12338.435547
677.861328	12530.577148
676.615234	12325.624023
675.369141	12593.872070
674.121094	12216.609375
672.873047	12492.788086
671.625000	12544.458008
670.376953	12614.134766
669.128906	12513.544922
667.880859	12795.456055
666.632813	12564.736328
665.382813	12466.213867
664.134766	12511.819336
662.884766	12477.371094
661.634766	12150.866211
660.384766	12164.502930
659.134766	11990.161133
657.884766	11799.892578
656.632813	11607.698242
655.382813	11667.391602
654.130859	11465.305664
652.880859	11379.166992
651.628906	10945.520508
650.376953	11101.147461
649.125000	11120.946289
647.871094	10823.341797
646.619141	10873.123047
645.367188	10691.415039
644.113281	10635.464844
642.859375	10824.875000
641.607422	10810.796875
640.353516	10579.394531
639.097656	10519.519531
637.843750	10381.936523
636.589844	10411.792969
635.333984	10236.429688
634.080078	10260.325195
632.824219	10345.948242
631.568359	10085.080078
630.312500	10105.007813
629.056641	10272.212891
627.800781	10413.482422
626.544922	9959.813477
625.287109	10156.784180
624.029297	10218.440430
622.773438	10166.731445
621.515625	10003.712891
620.257813	10333.690430
619.000000	10065.377930
617.742188	10156.790039
616.482422	10186.584961
615.224609	10176.646484
613.964844	10275.923828
612.705078	10021.779297
611.445313	10218.306641
610.185547	10174.629883
608.925781	10190.494141
607.666016	10412.660156
606.406250	10319.384766
605.144531	10305.463867
603.884766	10364.903320
602.623047	10348.996094
601.361328	10339.039063
600.099609	10543.077148
598.837891	10499.408203
597.576172	10330.974609
596.312500	10505.188477
595.050781	10546.683594
593.787109	10623.791992
592.523438	10623.685547
591.259766	10621.599609
589.996094	10629.405273
588.732422	10530.399414
587.468750	10753.768555
586.205078	10787.243164
584.939453	10798.960938
583.673828	10836.365234
582.410156	11019.976563
581.144531	10924.957031
579.878906	10930.709961
578.611328	11019.401367
577.345703	11017.233398
576.080078	10912.416992
574.812500	11233.946289
573.546875	11125.180664
572.279297	11089.452148
571.011719	11215.479492
569.744141	11136.360352
568.476563	11061.214844
567.207031	11110.290039
565.939453	11029.264648
564.669922	11068.473633
563.402344	11147.068359
562.132813	11178.357422
560.863281	11099.349609
559.593750	11266.493164
558.322266	11148.125000
557.052734	11181.354492
555.783203	11224.409180
554.511719	11200.553711
553.240234	11341.938477
551.968750	11170.568359
550.697266	11205.723633
549.425781	11427.621094
548.154297	11213.093750
546.882813	11350.401367
545.609375	11234.207031
544.337891	11143.594727
543.064453	11298.508789
541.791016	11280.568359
540.517578	11195.886719
539.244141	11268.259766
537.970703	11152.214844
536.695313	10922.419922
535.421875	11292.965820
534.146484	11188.750000
532.871094	11161.046875
531.595703	11349.001953
530.320313	11193.873047
529.044922	11179.901367
527.769531	11205.119141
526.492188	11077.533203
525.216797	11369.116211
523.939453	11223.923828
522.662109	11151.223633
521.384766	11395.640625
520.107422	11389.469727
518.830078	11369.605469
517.552734	11210.859375
516.273438	11339.675781
514.996094	11235.749023
513.716797	11368.417969
512.437500	11516.671875
511.158203	11477.258789
509.878906	11494.521484
508.599609	11500.056641
507.318359	11359.107422
506.039063	11501.354492
504.757813	11323.365234
503.476563	11742.733398
502.197266	11683.809570
500.916016	11702.953125
499.632813	11527.013672
498.351563	11397.952148
497.070313	11504.887695
495.787109	11498.705078
494.503906	11547.100586
493.222656	11792.307617
491.939453	11838.676758
490.656250	11602.559570
489.371094	11493.132813
488.087891	11570.687500
486.804688	11644.316406
485.519531	11338.348633
484.234375	11390.585938
482.949219	11713.257813
481.666016	11481.378906
480.378906	11475.206055
479.093750	11472.923828
477.808594	11709.775391
476.521484	11559.717773
475.236328	11707.059570
473.949219	11318.070313
472.662109	11597.499023
471.375000	11303.854492
470.087891	11406.464844
468.798828	11536.213867
467.511719	11392.217773
466.222656	11306.499023
464.935547	11343.053711
463.646484	11404.811523
462.357422	11767.172852
461.068359	11322.701172
459.779297	11142.079102
458.488281	11517.841797
457.199219	11277.173828
455.908203	11286.551758
454.619141	11450.902344
453.328125	11586.133789
452.037109	11603.188477
450.746094	11711.229492
449.453125	11478.547852
448.162109	11422.070313
446.869141	11601.671875
445.578125	11336.263672
444.285156	11479.060547
442.992188	11612.131836
441.699219	11650.414063
440.406250	11584.300781
439.111328	11510.482422
437.818359	11593.200195
436.523438	11662.362305
435.230469	11656.169922
433.935547	11675.083008
432.640625	11620.623047
431.345703	11911.703125
430.048828	11847.566406
428.753906	11974.475586
427.457031	12020.309570
426.162109	11919.541992
424.865234	11922.944336
423.568359	12163.482422
422.271484	11983.713867
420.974609	12193.307617
419.677734	12015.530273
418.378906	12097.889648
417.082031	12253.403320
415.783203	12277.911133
414.484375	12123.359375
413.185547	12247.974609
411.886719	12384.086914
410.587891	12350.822266
409.287109	12590.738281
407.988281	12380.497070
406.687500	12428.015625
405.386719	12385.152344
404.085938	12236.586914
402.785156	12380.192383
401.484375	12312.384766
400.183594	12465.520508
398.880859	12265.197266
397.580078	12439.403320
396.277344	12275.641602
394.974609	12369.155273
393.671875	12399.300781
392.369141	12289.367188
391.066406	12329.106445
389.763672	12395.680664
388.458984	12082.549805
387.154297	12193.240234
385.851563	12047.035156
384.546875	12240.092773
383.242188	12224.224609
381.937500	12022.545898
380.630859	11807.541016
379.326172	12088.572266
378.019531	11980.849609
376.712891	12041.609375
375.408203	11815.288086
374.101563	11929.628906
372.792969	11965.493164
371.486328	11955.440430
370.179688	11926.269531
368.871094	11855.049805
367.564453	11802.971680
366.255859	11773.846680
364.947266	11620.541016
363.638672	11895.193359
362.330078	11824.047852
361.019531	11737.654297
359.710938	11746.750977
358.400391	11545.881836
357.089844	11587.453125
355.781250	11735.852539
354.470703	11578.980469
353.158203	11660.568359
351.847656	11580.044922
350.537109	11713.072266
349.224609	11554.421875
347.914063	11805.549805
346.601563	11635.511719
345.289063	11602.692383
343.976563	11396.576172
342.662109	11567.558594
341.349609	11451.006836
340.037109	11473.446289
338.722656	11375.988281
337.408203	11478.340820
336.093750	11186.894531
334.779297	11568.812500
333.464844	11218.518555
332.150391	11461.497070
330.833984	11360.354492
329.519531	11306.758789
328.203125	11346.279297
326.886719	11342.094727
325.570313	11174.584961
324.253906	11210.309570
322.937500	11382.702148
321.619141	11167.833008
320.302734	11472.997070
318.984375	11415.665039
317.666016	11159.186523
316.347656	11380.721680
315.029297	11338.610352
313.710938	11440.588867
312.392578	11262.017578
311.072266	11369.653320
309.753906	11494.296875
308.433594	11325.291992
307.113281	11447.999023
305.792969	11619.884766
304.472656	11481.243164
303.152344	11412.684570
301.830078	11442.551758
300.509766	11599.162109
299.187500	11471.983398
297.865234	11666.345703
296.542969	11542.984375
295.220703	11604.927734
293.898438	11515.647461
292.574219	11556.784180
291.251953	11543.117188
289.927734	11656.006836
288.603516	11674.426758
287.279297	11789.130859
285.955078	11616.859375
284.630859	11740.963867
283.306641	11574.430664
281.980469	11590.959961
280.656250	11630.115234
279.330078	11648.510742
278.003906	11823.386719
276.677734	11768.217773
275.351563	11483.144531
274.023438	11688.094727
272.697266	11693.269531
271.369141	11679.606445
270.042969	11752.572266
268.714844	11861.280273
267.386719	11431.586914
266.058594	11442.451172
264.728516	11658.405273
263.400391	11817.834961
262.070313	11762.783203
260.742188	11523.467773
259.412109	11662.145508
258.082031	11558.284180
256.751953	11775.829102
255.421875	11775.328125
254.089844	11722.226563
252.759766	11637.216797
251.427734	11882.734375
250.095703	11891.596680
248.763672	11868.544922
247.431641	11657.835938
246.099609	11698.632813
244.767578	12101.462891
243.433594	12016.492188
242.101563	11972.809570
240.767578	12112.870117
239.433594	12089.802734
238.099609	11944.932617
236.765625	12189.835938
235.431641	12264.173828
234.095703	12139.956055
232.761719	12206.782227
231.425781	12309.151367
230.089844	12188.742188
228.753906	12176.918945
227.417969	12056.583984
226.082031	12082.203125
224.744141	12268.651367
223.408203	12312.915039
222.070313	12287.990234
220.732422	12328.492188
219.394531	12335.340820
218.056641	12463.627930
216.718750	12235.083008
215.378906	12264.355469
214.041016	12379.506836
212.701172	12391.935547
211.361328	12241.978516
210.023438	12338.402344
208.681641	12307.918945
207.341797	12445.326172
206.001953	12323.451172
204.660156	12399.267578
203.320313	12583.174805
201.978516	12552.669922
200.636719	12581.806641
199.294922	12668.685547
197.953125	12586.026367
196.611328	12667.280273
195.267578	12640.510742
193.923828	12896.705078
192.582031	12802.896484
191.238281	12807.747070
189.894531	12859.105469
188.550781	13025.763672
187.205078	13062.178711
185.861328	12890.339844
184.515625	12826.385742
183.171875	13123.009766
181.826172	13083.189453
180.480469	13260.743164
179.134766	13098.321289
177.787109	13454.072266
176.441406	13338.092773
175.093750	13411.498047
173.748047	13470.026367
172.400391	13528.529297
171.052734	13562.891602
169.705078	13317.170898
168.355469	13622.301758
167.007813	13591.732422
165.660156	13755.805664
164.310547	13504.683594
162.960938	13587.180664
161.611328	13578.870117
160.261719	13364.976563
158.912109	13869.650391
157.560547	13735.393555
156.210938	13741.866211
154.859375	13683.563477
153.507813	13956.479492
152.156250	13507.831055
150.804688	13921.233398
149.453125	13842.598633
148.101563	13991.392578
146.748047	14014.435547
145.396484	14163.133789
144.042969	14182.436523
142.689453	14336.580078
141.335938	14339.216797
139.982422	14308.614258
138.626953	14660.173828
137.273438	14574.144531
135.917969	14447.551758
134.564453	14629.125977
133.208984	14808.782227
131.853516	14827.914063
130.496094	14989.016602
129.140625	15177.707031
127.785156	15069.573242
126.427734	15002.023438
125.070313	15035.832031
123.712891	15309.090820
122.355469	15335.456055
120.998047	15271.587891
119.640625	15148.834961
118.281250	15283.807617
116.923828	15289.912109
115.564453	15382.484375
114.205078	15383.047852
112.845703	15297.174805
111.486328	15512.878906
110.126953	15511.575195
108.765625	15589.302734
107.406250	15705.586914
106.044922	15627.081055
104.683594	15699.225586
103.322266	15763.995117
101.960938	16019.687500
100.599609	15546.505859
99.236328	16132.497070
97.875000	16142.074219
96.511719	16122.294922
95.148438	16093.351563
93.785156	16407.347656
92.421875	16297.683594
91.058594	16666.501953
89.693359	16467.027344
88.330078	16397.728516
86.964844	16451.199219
85.599609	16343.466797
84.234375	16493.982422
82.869141	16507.121094
81.503906	16443.373047
80.138672	16330.237305
78.771484	16187.871094
77.404297	16213.864258
76.037109	16461.158203
74.669922	16357.250977
73.302734	16253.385742
71.935547	16345.147461
70.568359	16157.257813
69.199219	16099.173828
67.832031	15973.520508
66.462891	15970.288086
65.093750	15459.413086
63.724609	15447.156250
62.353516	15139.203125
60.984375	15256.586914
59.613281	14883.110352
