#Wave		#Intensity
1319.062500	4955.995117
1317.935547	5355.135742
1316.808594	5360.821289
1315.679688	5195.822754
1314.552734	5314.563477
1313.423828	5349.058594
1312.294922	5314.862305
1311.167969	5453.452148
1310.039063	5124.700195
1308.908203	5106.062012
1307.779297	5007.731445
1306.650391	5265.802246
1305.521484	5087.808594
1304.390625	5261.690430
1303.261719	5205.435059
1302.130859	5116.021484
1301.000000	5165.962402
1299.869141	5213.673340
1298.738281	5267.999512
1297.607422	5233.895020
1296.476563	5091.519531
1295.343750	5103.857910
1294.212891	5116.191406
1293.080078	5110.850586
1291.949219	4880.268555
1290.816406	4967.702637
1289.683594	5004.333008
1288.550781	5043.157227
1287.417969	4951.773438
1286.285156	5034.717773
1285.152344	4989.691895
1284.017578	5193.900391
1282.884766	5148.861328
1281.750000	4973.761719
1280.617188	4911.144043
1279.482422	5115.218262
1278.347656	5068.021484
1277.212891	4846.797363
1276.078125	4967.070313
1274.943359	4900.104492
1273.806641	4980.689453
1272.671875	4896.133301
1271.535156	4868.835449
1270.400391	5112.234375
1269.263672	4816.469727
1268.126953	4956.393555
1266.990234	4704.753906
1265.853516	4930.412598
1264.716797	4839.374512
1263.580078	4721.989258
1262.441406	4828.833984
1261.304688	4957.615234
1260.166016	4855.651367
1259.029297	4984.380859
1257.890625	4796.791504
1256.751953	4879.370117
1255.613281	4838.968262
1254.474609	4857.849609
1253.335938	4775.765625
1252.195313	4981.170898
1251.056641	4760.875000
1249.916016	5023.240723
1248.777344	4881.970215
1247.636719	4876.701660
1246.496094	4994.207520
1245.355469	4859.593750
1244.214844	4915.695801
1243.074219	4809.629883
1241.933594	4953.351074
1240.791016	4737.797363
1239.650391	4903.378906
1238.507813	4935.335449
1237.367188	4943.199219
1236.224609	4940.115723
1235.082031	4919.525879
1233.939453	4800.482910
1232.796875	4790.863281
1231.654297	4822.804199
1230.509766	4756.326660
1229.367188	4770.770508
1228.222656	4877.021484
1227.080078	5002.904785
1225.935547	5168.076172
1224.791016	4968.320313
1223.646484	4888.780273
1222.501953	4981.808594
1221.357422	4862.988770
1220.212891	4851.191406
1219.066406	4704.060547
1217.921875	4783.959473
1216.775391	4857.282715
1215.628906	4886.945801
1214.484375	4923.141602
1213.337891	5035.654785
1212.191406	4816.693359
1211.042969	4865.961914
1209.896484	4799.688965
1208.750000	4957.907227
1207.601563	4715.149902
1206.455078	4866.790039
1205.306641	4763.536133
1204.158203	4947.777832
1203.011719	4772.694336
1201.863281	5098.367676
1200.712891	4908.083984
1199.564453	4909.369629
1198.416016	4771.406738
1197.267578	4787.943359
1196.117188	4730.525391
1194.966797	4692.699219
1193.818359	4726.633789
1192.667969	4988.801758
1191.517578	4774.904785
1190.367188	4860.957031
1189.216797	4968.703613
1188.064453	4813.575195
1186.914063	4699.767578
1185.763672	4870.454102
1184.611328	4739.309082
1183.458984	4983.727051
1182.306641	4780.990723
1181.156250	4897.292480
1180.003906	4889.894043
1178.849609	4882.497559
1177.697266	4987.873535
1176.544922	4867.712891
1175.390625	4944.870605
1174.238281	4950.473633
1173.083984	4832.551758
1171.929688	4851.172852
1170.777344	4770.138184
1169.623047	4936.042969
1168.466797	4928.648438
1167.312500	4984.043945
1166.158203	4822.948730
1165.003906	4915.136230
1163.847656	4896.930176
1162.691406	5088.591797
1161.537109	4838.905762
1160.380859	5004.555176
1159.224609	4735.514160
1158.068359	4901.121094
1156.912109	4967.236328
1155.753906	4974.976074
1154.597656	5015.124023
1153.441406	4748.484863
1152.283203	4980.896484
1151.125000	5081.489258
1149.966797	4897.032227
1148.808594	5049.413574
1147.650391	4988.057617
1146.492188	5218.054688
1145.333984	5148.059570
1144.175781	5091.033203
1143.015625	5070.692871
1141.857422	5106.427246
1140.697266	5256.418457
1139.537109	5201.567871
1138.376953	5131.650879
1137.216797	5266.470215
1136.056641	5203.029297
1134.896484	5357.172852
1133.736328	5160.209961
1132.574219	5439.194824
1131.414063	5349.933105
1130.251953	5312.363281
1129.089844	5431.910645
1127.927734	5458.890625
1126.765625	5453.590820
1125.603516	5555.838379
1124.441406	5352.673340
1123.279297	5502.204590
1122.115234	5569.990723
1120.953125	5927.914551
1119.789063	5432.569824
1118.625000	5670.067383
1117.462891	5602.437012
1116.298828	5728.131348
1115.132813	5681.988281
1113.968750	5704.565430
1112.804688	5860.223633
1111.640625	5844.127930
1110.474609	5843.058105
1109.308594	5951.405273
1108.144531	5830.194336
1106.978516	5994.263672
1105.812500	6042.483887
1104.646484	6150.713867
1103.480469	6040.270508
1102.312500	6341.336426
1101.146484	6070.197754
1099.980469	6375.431641
1098.812500	6444.945801
1097.644531	6428.773926
1096.476563	6463.994629
1095.310547	6308.678223
1094.140625	6365.310059
1092.972656	6475.418945
1091.804688	6262.417480
1090.636719	6455.930664
1089.466797	6640.817383
1088.298828	6675.951172
1087.128906	6546.448242
1085.958984	6519.596191
1084.789063	6556.868652
1083.619141	6856.952148
1082.449219	6695.463379
1081.279297	6820.257813
1080.107422	6628.936035
1078.937500	7016.328125
1077.765625	6844.253418
1076.595703	6994.540527
1075.423828	6880.151367
1074.251953	6945.029785
1073.080078	6992.818359
1071.908203	7136.567871
1070.736328	7137.388184
1069.562500	7168.057129
1068.390625	7096.393066
1067.216797	7303.954590
1066.044922	7179.018555
1064.871094	7493.013672
1063.697266	7338.266113
1062.523438	7468.958984
1061.349609	7605.991211
1060.173828	7621.622559
1059.000000	7562.748535
1057.826172	7742.249512
1056.650391	7779.123535
1055.474609	7722.378906
1054.300781	7576.321289
1053.125000	7913.053711
1051.949219	7913.721680
1050.773438	7850.614746
1049.595703	7910.804688
1048.419922	7958.222168
1047.244141	7916.386719
1046.066406	8106.108398
1044.888672	8217.177734
1043.710938	8211.415039
1042.535156	8299.069336
1041.357422	8248.715820
1040.177734	8160.180176
1039.000000	8398.448242
1037.822266	8242.028320
1036.642578	8361.409180
1035.464844	8419.246094
1034.285156	8523.707031
1033.105469	8609.049805
1031.925781	8615.937500
1030.746094	8641.894531
1029.566406	8689.029297
1028.386719	8729.791016
1027.207031	8808.660156
1026.025391	8648.212891
1024.845703	8881.622070
1023.664063	8723.336914
1022.482422	9145.004883
1021.300781	8798.402344
1020.119141	8885.630859
1018.937500	8911.484375
1017.755859	9134.008789
1016.574219	8967.390625
1015.390625	9259.584961
1014.207031	9173.324219
1013.025391	9385.066406
1011.841797	9220.635742
1010.658203	9333.002930
1009.474609	9314.376953
1008.291016	9283.086914
1007.107422	9245.473633
1005.921875	9319.753906
1004.738281	9263.152344
1003.552734	9354.281250
1002.367188	9325.119141
1001.183594	9264.328125
999.998047	9545.211914
998.812500	9490.725586
997.626953	9453.125977
996.439453	9603.132813
995.253906	9502.301758
994.066406	9548.999023
992.880859	9494.560547
991.693359	9614.958984
990.505859	9552.103516
989.318359	9594.543945
988.130859	9578.026367
986.943359	9416.291016
985.755859	9532.380859
984.566406	9496.946289
983.378906	9623.494141
982.189453	9299.929688
981.001953	9348.665039
979.812500	9548.750000
978.623047	9544.871094
977.433594	9435.916992
976.242188	9476.183594
975.052734	9394.590820
973.863281	9443.250977
972.671875	9472.993164
971.482422	9527.917969
970.291016	9463.166992
969.099609	9444.614258
967.908203	9394.590820
966.716797	9434.800781
965.525391	9468.702148
964.332031	9492.104492
963.140625	9588.886719
961.947266	9647.895508
960.755859	9606.271484
959.562500	9367.667969
958.369141	9533.543945
957.175781	9366.268555
955.982422	9431.544922
954.789063	9419.313477
953.593750	9635.301758
952.400391	9474.410156
951.205078	9359.622070
950.009766	9339.041016
948.816406	9657.396484
947.621094	9425.498047
946.425781	9342.173828
945.230469	9398.975586
944.033203	9455.754883
942.837891	9322.304688
941.640625	9460.579102
940.445313	9467.166992
939.248047	9502.999023
938.050781	9344.573242
936.853516	9399.207031
935.656250	9387.008789
934.458984	9389.426758
933.261719	9433.584961
932.062500	9569.540039
930.865234	9402.930664
929.666016	9313.561523
928.466797	9157.489258
927.269531	9374.710938
926.070313	9287.480469
924.869141	9367.029297
923.669922	9215.228516
922.470703	9242.670898
921.269531	9347.178711
920.070313	9447.482422
918.869141	9237.470703
917.667969	9344.001953
916.466797	9286.044922
915.265625	9186.485352
914.064453	9170.195313
912.863281	9336.988281
911.662109	8856.825195
910.458984	9241.977539
909.257813	9003.205078
908.054688	9211.480469
906.851563	9082.961914
905.648438	9153.988281
904.445313	9058.770508
903.242188	8959.434570
902.039063	8970.210938
900.833984	8960.217773
899.630859	8952.303711
898.425781	8728.514648
897.220703	8755.927734
896.015625	8685.805664
894.810547	8644.753906
893.605469	8636.904297
892.400391	8566.842773
891.195313	8405.577148
889.988281	8476.549805
888.783203	8578.583984
887.576172	8614.267578
886.369141	8573.279297
885.162109	8376.946289
883.955078	8367.083008
882.748047	8460.755859
881.541016	8345.294922
880.332031	8018.748535
879.125000	8284.201172
877.916016	8249.532227
876.707031	8179.708008
875.500000	8020.971191
874.291016	8054.611816
873.082031	8071.698730
871.871094	7832.451660
870.662109	7851.639648
869.453125	7976.205566
868.242188	7720.582031
867.031250	7764.566406
865.822266	7713.533691
864.611328	7548.955078
863.400391	7570.236328
862.187500	7667.878418
860.976563	7554.991211
859.765625	7570.068359
858.552734	7409.795410
857.341797	7416.643066
856.128906	7373.997559
854.916016	7438.575684
853.703125	7127.972168
852.490234	7369.809570
851.277344	7016.064941
850.064453	7105.381348
848.849609	7176.125977
847.636719	7160.350586
846.421875	6928.390137
845.207031	7155.577637
843.992188	7094.533691
842.777344	6963.547852
841.562500	6818.208984
840.347656	6919.766113
839.130859	7002.773926
837.916016	7073.413086
836.699219	6942.552734
835.482422	6955.623047
834.267578	6812.503418
833.050781	6823.537598
831.833984	6692.822266
830.615234	6631.988281
829.398438	6805.274902
828.181641	6888.158691
826.962891	6776.002930
825.744141	6522.278809
824.527344	6689.297363
823.308594	6833.684570
822.089844	6578.041504
820.869141	6734.698730
819.650391	6589.891602
818.431641	6715.735840
817.210938	6790.292480
815.992188	6809.491699
814.771484	6621.753418
813.550781	6849.915039
812.330078	6744.160645
811.109375	6816.590820
809.888672	6643.323242
808.666016	6678.900391
807.445313	6706.277832
806.222656	6792.980469
805.001953	6711.903320
803.779297	6743.348145
802.556641	6762.510742
801.333984	6640.593750
800.109375	6690.429688
798.886719	6705.502930
797.664063	6734.873047
796.439453	6809.176758
795.216797	6715.960938
793.992188	7029.173340
792.767578	6831.818848
791.542969	6920.334961
790.318359	6825.126465
789.091797	6905.446777
787.867188	6863.321777
786.642578	6894.646973
785.416016	6673.068359
784.189453	6869.580566
782.962891	6864.188965
781.736328	6803.765625
780.509766	6716.872559
779.283203	6892.849121
778.056641	7054.498047
776.828125	6912.613770
775.601563	6941.834961
774.373047	6844.816406
773.144531	6969.708984
771.916016	7005.006348
770.687500	6973.142090
769.458984	6925.015137
768.230469	7055.896484
767.000000	7123.686035
765.771484	7063.356934
764.541016	6992.886230
763.310547	6991.544922
762.080078	6923.145996
760.849609	7015.273438
759.619141	7060.645508
758.388672	7199.419922
757.156250	6962.502441
755.925781	7277.858398
754.693359	7069.431641
753.462891	6964.579102
752.230469	7032.223633
750.998047	7258.067383
749.765625	7009.239746
748.531250	6823.367188
747.298828	7012.626465
746.064453	7090.329590
744.832031	7011.956055
743.597656	7152.439941
742.363281	7398.210938
741.128906	7074.747559
739.894531	7099.710938
738.660156	7189.452637
737.425781	7388.467773
736.189453	7158.350098
734.955078	7264.214355
733.718750	7331.599121
732.482422	7344.345215
731.246094	7310.573242
730.009766	7385.996094
728.773438	7332.013184
727.537109	7379.105957
726.298828	7238.252930
725.062500	7230.795410
723.824219	7324.338379
722.585938	7054.323242
721.347656	7424.489258
720.109375	7241.366211
718.871094	7252.078613
717.632813	7383.866211
716.392578	7275.506836
715.154297	7350.755859
713.914063	7169.837891
712.673828	7541.494141
711.433594	7437.218262
710.193359	7544.626465
708.953125	7579.442871
707.712891	7543.724121
706.472656	7266.279297
705.230469	7528.721680
703.988281	7442.689453
702.748047	7489.568848
701.505859	7385.459961
700.263672	7319.628906
699.021484	7491.257324
697.777344	7632.642090
696.535156	7502.436035
695.291016	7593.488281
694.048828	7565.879395
692.804688	7445.811035
691.560547	7572.996582
690.316406	7505.217773
689.072266	7397.283691
687.828125	7317.511719
686.582031	7557.083984
685.337891	7617.862305
684.091797	7624.414551
682.847656	7540.644531
681.601563	7547.208008
680.355469	7475.521973
679.109375	7433.952637
677.861328	7504.708496
676.615234	7619.549316
675.369141	7622.079102
674.121094	7510.358398
672.873047	7687.252930
671.625000	7489.407715
670.376953	7628.176270
669.128906	7702.799805
667.880859	7531.096680
666.632813	7759.865723
665.382813	7498.143555
664.134766	7574.733398
662.884766	7799.357422
661.634766	7635.801270
660.384766	7546.312012
659.134766	7672.823242
657.884766	7471.398926
656.632813	7673.833496
655.382813	7510.458496
654.130859	7696.820801
652.880859	7617.409180
651.628906	7699.813965
650.376953	7778.191895
649.125000	7565.038574
647.871094	7647.403809
646.619141	7362.509277
645.367188	7859.926270
644.113281	7535.199707
642.859375	7695.294922
641.607422	7751.626953
640.353516	7813.917480
639.097656	7732.653809
637.843750	7699.255371
636.589844	7775.467285
635.333984	7510.965332
634.080078	7601.126465
632.824219	7579.726563
631.568359	7580.236816
630.312500	7584.728027
629.056641	7573.293945
627.800781	7681.261719
626.544922	7731.489258
625.287109	7741.912598
624.029297	7664.824219
622.773438	7949.656250
621.515625	7810.927734
620.257813	7789.523438
619.000000	7589.274902
617.742188	7679.184570
616.482422	7878.314453
615.224609	7783.426758
613.964844	7793.816895
612.705078	8030.525879
611.445313	8062.696777
610.185547	7967.844727
608.925781	7946.442383
607.666016	8184.917969
606.406250	8143.646484
605.144531	8346.295898
603.884766	8271.303711
602.623047	8237.966797
601.361328	8365.167969
600.099609	8349.658203
598.837891	8435.184570
597.576172	8281.020508
596.312500	8445.736328
595.050781	8592.567383
593.787109	8658.182617
592.523438	8779.185547
591.259766	8605.315430
589.996094	8631.322266
588.732422	8635.560547
587.468750	8956.200195
586.205078	8806.155273
584.939453	8814.308594
583.673828	8822.458008
582.410156	8810.843750
581.144531	8975.059570
579.878906	8827.130859
578.611328	8987.329102
577.345703	8967.791016
576.080078	8983.792969
574.812500	9092.549805
573.546875	9080.893555
572.279297	9104.753906
571.011719	8933.329102
569.744141	9077.503906
568.476563	8898.263672
567.207031	9085.756836
565.939453	9072.141602
564.669922	9194.498047
563.402344	9090.239258
562.132813	9204.663086
560.863281	9267.838867
559.593750	9390.057617
558.322266	9305.525391
557.052734	9297.786133
555.783203	9067.685547
554.511719	9278.378906
553.240234	9286.383789
551.968750	9095.753906
550.697266	9162.778320
549.425781	9184.559570
548.154297	9367.502930
546.882813	9308.666016
545.609375	9177.157227
544.337891	9293.204102
543.064453	9167.640625
541.791016	9197.247070
540.517578	9307.329102
539.244141	9250.533203
537.970703	9103.488281
536.695313	9539.213867
535.421875	9158.738281
534.146484	9608.007813
532.871094	9196.294922
531.595703	9321.904297
530.320313	9271.059570
529.044922	9455.393555
527.769531	9404.541016
526.492188	9375.255859
525.216797	9228.471680
523.939453	9545.817383
522.662109	9545.885742
521.384766	9553.782227
520.107422	9448.171875
518.830078	9471.736328
517.552734	9383.788086
516.273438	9538.392578
514.996094	9636.228516
513.716797	9720.339844
512.437500	9775.097656
511.158203	9888.459961
509.878906	9569.975586
508.599609	9560.264648
507.318359	9704.849609
506.039063	9714.641602
504.757813	9702.953125
503.476563	9798.624023
502.197266	9794.728516
500.916016	9708.885742
499.632813	9531.390625
498.351563	9584.109375
497.070313	9617.306641
495.787109	9847.398438
494.503906	9654.420898
493.222656	9777.228516
491.939453	9872.708008
490.656250	9748.020508
489.371094	9693.497070
488.087891	9730.515625
486.804688	9790.882813
485.519531	9510.587891
484.234375	9644.924805
482.949219	9804.502930
481.666016	9738.356445
480.378906	9794.768555
479.093750	9674.202148
477.808594	9615.897461
476.521484	9757.825195
475.236328	9524.618164
473.949219	9746.169922
472.662109	9753.943359
471.375000	9610.218750
470.087891	9369.457031
468.798828	9520.967773
467.511719	9571.481445
466.222656	9505.532227
464.935547	9538.564453
463.646484	9530.844727
462.357422	9684.109375
461.068359	9488.264648
459.779297	9608.516602
458.488281	9511.621094
457.199219	9579.493164
455.908203	9304.380859
454.619141	9381.952148
453.328125	9558.269531
452.037109	9645.440430
450.746094	9730.639648
449.453125	9564.166016
448.162109	9533.229492
446.869141	9734.492188
445.578125	9666.776367
444.285156	9570.074219
442.992188	9759.605469
441.699219	9641.655273
440.406250	9707.384766
439.111328	9738.300781
437.818359	9817.508789
436.523438	9867.707031
435.230469	9933.335938
433.935547	9877.283203
432.640625	9883.032227
431.345703	10091.457031
430.048828	10018.035156
428.753906	10181.969727
427.457031	10145.210938
426.162109	10212.617188
424.865234	10341.703125
423.568359	10289.508789
422.271484	10412.743164
420.974609	10370.189453
419.677734	10231.312500
418.378906	10337.145508
417.082031	10402.488281
415.783203	10383.077148
414.484375	10689.041016
413.185547	10517.512695
411.886719	10513.483398
410.587891	10721.106445
409.287109	10722.807617
407.988281	10672.577148
406.687500	10562.754883
405.386719	10593.323242
404.085938	10546.992188
402.785156	10612.142578
401.484375	10819.450195
400.183594	10844.176758
398.880859	10786.305664
397.580078	10634.364258
396.277344	10853.018555
394.974609	10729.916016
393.671875	10762.308594
392.369141	10831.143555
391.066406	10796.360352
389.763672	10926.534180
388.458984	10638.626953
387.154297	10809.039063
385.851563	10739.783203
384.546875	11034.672852
383.242188	11072.695313
381.937500	10714.165039
380.630859	10700.523438
379.326172	10780.715820
378.019531	10801.526367
376.712891	10856.781250
375.408203	10952.201172
374.101563	10992.096680
372.792969	10965.021484
371.486328	11192.327148
370.179688	11276.127930
368.871094	11222.245117
367.564453	11216.167969
366.255859	11598.032227
364.947266	11494.438477
363.638672	11574.269531
362.330078	11785.850586
361.019531	11928.603516
359.710938	12008.298828
358.400391	12112.773438
357.089844	11917.596680
355.781250	12212.842773
354.470703	12135.992188
353.158203	12064.893555
351.847656	11816.489258
350.537109	11909.434570
349.224609	11832.703125
347.914063	11797.927734
346.601563	11528.816406
345.289063	11141.708984
343.976563	11398.480469
342.662109	11219.103516
341.349609	10895.114258
340.037109	10683.551758
338.722656	10746.103516
337.408203	10574.609375
336.093750	10599.112305
334.779297	10378.268555
333.464844	10271.599609
332.150391	10235.312500
330.833984	10157.224609
329.519531	10012.657227
328.203125	9997.341797
326.886719	10008.625000
325.570313	9926.844727
324.253906	10072.949219
322.937500	9882.979492
321.619141	10104.953125
320.302734	10042.193359
318.984375	10038.272461
317.666016	10119.710938
316.347656	10148.015625
315.029297	10153.554688
313.710938	10153.404297
312.392578	10270.762695
311.072266	10111.412109
309.753906	10063.904297
308.433594	10241.822266
307.113281	10154.536133
305.792969	9946.106445
304.472656	10233.734375
303.152344	10296.020508
301.830078	10191.761719
300.509766	10278.625000
299.187500	10251.961914
297.865234	10340.667969
296.542969	10591.941406
295.220703	10540.654297
293.898438	10702.956055
292.574219	10661.115234
291.251953	10857.331055
289.927734	11070.467773
288.603516	11209.867188
287.279297	11390.748047
285.955078	11405.437500
284.630859	11459.754883
283.306641	10936.648438
281.980469	11028.767578
280.656250	10600.267578
279.330078	10422.748047
278.003906	10399.904297
276.677734	10358.218750
275.351563	10244.932617
274.023438	10386.067383
272.697266	9958.211914
271.369141	10069.210938
270.042969	10005.034180
268.714844	10196.935547
267.386719	9859.814453
266.058594	9931.219727
264.728516	9938.621094
263.400391	10136.022461
262.070313	10004.196289
260.742188	9911.912109
259.412109	9994.512695
258.082031	9996.252930
256.751953	10005.507813
255.421875	10099.311523
254.089844	10046.548828
252.759766	9963.756836
251.427734	9944.841797
250.095703	10047.966797
248.763672	10096.616211
247.431641	10210.927734
246.099609	10199.481445
244.767578	10354.995117
243.433594	10247.872070
242.101563	10459.566406
240.767578	10676.798828
239.433594	10657.769531
238.099609	10771.802734
236.765625	10728.404297
235.431641	10606.346680
234.095703	10729.683594
232.761719	10476.598633
231.425781	10584.934570
230.089844	10345.082031
228.753906	10496.440430
227.417969	10449.414063
226.082031	10333.192383
224.744141	10473.239258
223.408203	10153.246094
222.070313	10268.967773
220.732422	10293.057617
219.394531	10246.125000
218.056641	10199.211914
216.718750	10159.789063
215.378906	10329.549805
214.041016	10351.732422
212.701172	10138.686523
211.361328	10140.367188
210.023438	10145.779297
208.681641	9994.470703
207.341797	10199.496094
206.001953	10156.403320
204.660156	10165.535156
203.320313	10101.958984
201.978516	10208.013672
200.636719	10382.972656
199.294922	10660.326172
197.953125	10313.575195
196.611328	10324.522461
195.267578	10504.899414
193.923828	10586.541992
192.582031	10495.062500
191.238281	10327.328125
189.894531	10567.088867
188.550781	10657.950195
187.205078	10607.441406
185.861328	10675.945313
184.515625	10764.869141
183.171875	10842.605469
181.826172	10719.630859
180.480469	10849.361328
179.134766	10837.876953
177.787109	11179.229492
176.441406	10957.881836
175.093750	11065.181641
173.748047	11014.687500
172.400391	11127.498047
171.052734	11383.108398
169.705078	11250.969727
168.355469	11115.174805
167.007813	11231.580078
165.660156	11071.746094
164.310547	11353.051758
162.960938	11513.805664
161.611328	11368.831055
160.261719	11301.703125
158.912109	11406.815430
157.560547	11145.311523
156.210938	11454.022461
154.859375	11370.274414
153.507813	11582.601563
152.156250	11417.465820
150.804688	11724.020508
149.453125	11388.801758
148.101563	11539.941406
146.748047	11581.964844
145.396484	11790.291016
144.042969	11712.150391
142.689453	12103.243164
141.335938	11784.974609
139.982422	12006.014648
138.626953	11983.275391
137.273438	12117.434570
135.917969	11932.286133
134.564453	12147.581055
133.208984	12137.741211
131.853516	12328.930664
130.496094	12433.378906
129.140625	12366.337891
127.785156	12382.263672
126.427734	12460.837891
125.070313	12423.307617
123.712891	12671.307617
122.355469	12418.275391
120.998047	12402.871094
119.640625	12518.177734
118.281250	12587.422852
116.923828	12358.533203
115.564453	12663.274414
114.205078	12671.746094
112.845703	12496.309570
111.486328	12585.712891
110.126953	12564.780273
108.765625	12646.780273
107.406250	12965.791016
106.044922	13005.420898
104.683594	13039.523438
103.322266	13143.395508
101.960938	13135.226563
100.599609	13134.401367
99.236328	13137.248047
97.875000	13224.500977
96.511719	13177.792969
95.148438	13523.624023
93.785156	13454.868164
92.421875	13457.643555
91.058594	13709.719727
89.693359	13607.976563
88.330078	13425.651367
86.964844	13633.611328
85.599609	13583.229492
84.234375	13756.278320
82.869141	13914.610352
81.503906	13461.491211
80.138672	13546.612305
78.771484	13256.597656
77.404297	13444.170898
76.037109	13624.351563
74.669922	13537.476563
73.302734	13313.515625
71.935547	13385.765625
70.568359	13264.266602
69.199219	13155.606445
67.832031	13299.088867
66.462891	12947.549805
65.093750	12798.845703
63.724609	12505.970703
62.353516	12244.245117
60.984375	12391.414063
59.613281	11909.042969
