#Wave		#Intensity
1319.062500	6381.813965
1317.935547	6543.687500
1316.808594	6323.020020
1315.679688	6441.579102
1314.552734	6635.447266
1313.423828	6474.709473
1312.294922	6331.753418
1311.167969	6580.912109
1310.039063	6426.914551
1308.908203	6485.540039
1307.779297	6353.753418
1306.650391	6525.256348
1305.521484	6192.121582
1304.390625	6465.374023
1303.261719	6388.991211
1302.130859	6560.363281
1301.000000	6455.241211
1299.869141	6600.006348
1298.738281	6223.003906
1297.607422	6325.763184
1296.476563	6315.782715
1295.343750	6111.372559
1294.212891	6300.249023
1293.080078	6299.112305
1291.949219	6366.432129
1290.816406	6296.839355
1289.683594	6163.254395
1288.550781	6349.743164
1287.417969	6187.510254
1286.285156	5943.703125
1285.152344	6081.600098
1284.017578	6276.790039
1282.884766	6088.225098
1281.750000	6144.447754
1280.617188	6163.176758
1279.482422	6129.005859
1278.347656	6072.812012
1277.212891	6120.183594
1276.078125	6196.172363
1274.943359	6098.152344
1273.806641	6066.224609
1272.671875	6093.748535
1271.535156	5808.705566
1270.400391	5983.712891
1269.263672	6057.442383
1268.126953	6304.937500
1266.990234	6042.056641
1265.853516	5891.425293
1264.716797	5740.848145
1263.580078	6095.938477
1262.441406	6006.919922
1261.304688	6082.747559
1260.166016	6020.128906
1259.029297	5986.089844
1257.890625	5840.049805
1256.751953	6144.229004
1255.613281	5853.307129
1254.474609	5979.567383
1253.335938	6099.197266
1252.195313	6117.843750
1251.056641	6024.591309
1249.916016	5933.565918
1248.777344	5787.744629
1247.636719	6104.647949
1246.496094	5954.463379
1245.355469	6058.600586
1244.214844	6061.887695
1243.074219	5852.629395
1241.933594	5928.247559
1240.791016	5942.507813
1239.650391	6083.781738
1238.507813	6168.074707
1237.367188	6110.039063
1236.224609	6150.520508
1235.082031	6127.523438
1233.939453	6034.517578
1232.796875	6061.864258
1231.654297	6108.885254
1230.509766	6085.911133
1229.367188	6128.537598
1228.222656	5983.150391
1227.080078	6047.635254
1225.935547	5970.057129
1224.791016	6071.663086
1223.646484	5959.156738
1222.501953	5901.291992
1221.357422	6258.341309
1220.212891	6169.876953
1219.066406	5970.118652
1217.921875	6198.195801
1216.775391	6070.512207
1215.628906	6008.325195
1214.484375	6070.493164
1213.337891	6204.607422
1212.191406	5917.838867
1211.042969	6154.395508
1209.896484	6172.896973
1208.750000	6110.756836
1207.601563	6052.997070
1206.455078	6191.324219
1205.306641	6066.048340
1204.158203	6110.680176
1203.011719	5819.987305
1201.863281	6182.478516
1200.712891	5859.229492
1199.564453	6019.200684
1198.416016	5978.944824
1197.267578	6234.550781
1196.117188	6018.098633
1194.966797	5945.245605
1193.818359	5965.907715
1192.667969	6080.034180
1191.517578	5996.341797
1190.367188	6236.453613
1189.216797	6035.442871
1188.064453	6136.439453
1186.914063	6139.668457
1185.763672	6168.952637
1184.611328	6109.214355
1183.458984	6086.397949
1182.306641	6204.653809
1181.156250	6025.600586
1180.003906	6020.166504
1178.849609	6040.762695
1177.697266	6113.397949
1176.544922	6006.042480
1175.390625	6182.713867
1174.238281	6294.297363
1173.083984	6106.785156
1171.929688	6077.507324
1170.777344	6306.026855
1169.623047	6168.429199
1168.466797	6046.039551
1167.312500	6250.623047
1166.158203	6171.556152
1165.003906	6252.676758
1163.847656	6273.177246
1162.691406	6200.639160
1161.537109	6071.886230
1160.380859	6349.772461
1159.224609	6236.174805
1158.068359	6232.876953
1156.912109	6229.580078
1155.753906	6154.965820
1154.597656	6175.452148
1153.441406	6217.534180
1152.283203	6393.518555
1151.125000	6547.843262
1149.966797	6350.163574
1148.808594	6271.289551
1147.650391	6341.373535
1146.492188	6357.480957
1145.333984	6375.740234
1144.175781	6527.739746
1143.015625	6494.196777
1141.857422	6585.738770
1140.697266	6716.055176
1139.537109	6626.448242
1138.376953	6554.116211
1137.216797	6649.888184
1136.056641	6618.512207
1134.896484	6718.544922
1133.736328	6676.398438
1132.574219	6787.150391
1131.414063	6678.266113
1130.251953	6849.246582
1129.089844	6807.105469
1127.927734	6902.688965
1126.765625	6875.611816
1125.603516	6878.657227
1124.441406	6862.346680
1123.279297	6938.497070
1122.115234	7061.914063
1120.953125	7097.162109
1119.789063	6868.074707
1118.625000	7305.126465
1117.462891	7114.750977
1116.298828	7162.848633
1115.132813	7335.477051
1113.968750	7252.548828
1112.804688	7388.604492
1111.640625	7237.017578
1110.474609	7327.963379
1109.308594	7588.363770
1108.144531	7548.363770
1106.978516	7662.792480
1105.812500	7552.032715
1104.646484	7494.909180
1103.480469	7547.123047
1102.312500	7633.606445
1101.146484	7670.775879
1099.980469	7836.468262
1098.812500	7796.478027
1097.644531	7672.983887
1096.476563	7883.546875
1095.310547	7775.065918
1094.140625	7810.025879
1092.972656	7847.112305
1091.804688	7935.533691
1090.636719	8098.791992
1089.466797	8024.588379
1088.298828	8104.374023
1087.128906	8049.437500
1085.958984	8191.177734
1084.789063	8110.598633
1083.619141	8414.669922
1082.449219	8543.445313
1081.279297	8576.052734
1080.107422	8585.155273
1078.937500	8474.682617
1077.765625	8579.867188
1076.595703	8529.199219
1075.423828	8502.023438
1074.251953	8677.553711
1073.080078	8641.826172
1071.908203	8580.517578
1070.736328	8798.584961
1069.562500	8796.966797
1068.390625	8918.987305
1067.216797	8891.771484
1066.044922	8947.669922
1064.871094	9101.550781
1063.697266	9031.711914
1062.523438	9219.595703
1061.349609	9026.258789
1060.173828	9192.784180
1059.000000	9193.219727
1057.826172	9272.397461
1056.650391	9415.377930
1055.474609	9622.126953
1054.300781	9390.639648
1053.125000	9548.404297
1051.949219	9516.877930
1050.773438	9668.181641
1049.595703	9696.155273
1048.419922	9792.119141
1047.244141	9839.180664
1046.066406	9879.850586
1044.888672	9737.854492
1043.710938	9863.465820
1042.535156	9925.337891
1041.357422	10057.235352
1040.177734	10131.781250
1039.000000	10350.587891
1037.822266	10236.238281
1036.642578	10151.625000
1035.464844	10327.890625
1034.285156	10542.256836
1033.105469	10222.319336
1031.925781	10532.003906
1030.746094	10434.696289
1029.566406	10602.268555
1028.386719	10617.255859
1027.207031	10625.882813
1026.025391	10645.094727
1024.845703	10732.048828
1023.664063	10694.078125
1022.482422	10850.831055
1021.300781	10855.171875
1020.119141	10965.291992
1018.937500	10997.106445
1017.755859	10978.152344
1016.574219	10726.615234
1015.390625	11177.038086
1014.207031	11160.172852
1013.025391	11208.825195
1011.841797	10951.089844
1010.658203	11052.573242
1009.474609	10966.041992
1008.291016	11240.643555
1007.107422	11012.649414
1005.921875	11145.708008
1004.738281	11295.600586
1003.552734	11234.421875
1002.367188	11390.570313
1001.183594	11268.223633
999.998047	10987.749023
998.812500	11327.300781
997.626953	11181.841797
996.439453	11335.744141
995.253906	11361.036133
994.066406	11417.922852
992.880859	11154.582031
991.693359	11312.583984
990.505859	11304.165039
989.318359	11552.614258
988.130859	11518.891602
986.943359	11350.482422
985.755859	11344.164063
984.566406	11480.912109
983.378906	11230.565430
982.189453	11257.920898
981.001953	11213.772461
979.812500	11415.612305
978.623047	11369.347656
977.433594	11505.934570
976.242188	11289.475586
975.052734	11304.180664
973.863281	11344.083984
972.671875	11224.373047
971.482422	11148.796875
970.291016	11174.010742
969.099609	11132.051758
967.908203	11291.555664
966.716797	11444.705078
965.525391	11262.175781
964.332031	11331.382813
963.140625	11281.042969
961.947266	11123.801758
960.755859	11320.853516
959.562500	11264.254883
958.369141	11155.293945
957.175781	11182.541016
955.982422	11618.205078
954.789063	11289.355469
953.593750	11318.653320
952.400391	11138.607422
951.205078	11170.014648
950.009766	11088.411133
948.816406	11257.897461
947.621094	11144.929688
946.425781	11117.750977
945.230469	11071.762695
944.033203	11293.386719
942.837891	11320.538086
941.640625	11318.421875
940.445313	11030.053711
939.248047	11144.976563
938.050781	11188.841797
936.853516	10896.481445
935.656250	11042.680664
934.458984	11109.500000
933.261719	11057.330078
932.062500	10863.285156
930.865234	10840.387695
929.666016	11199.218750
928.466797	11038.622070
927.269531	11034.468750
926.070313	10923.995117
924.869141	11038.669922
923.669922	11063.692383
922.470703	10926.186523
921.269531	10851.226563
920.070313	11086.628906
918.869141	10961.688477
917.667969	10853.449219
916.466797	11134.511719
915.265625	10903.488281
914.064453	10916.006836
912.863281	11038.784180
911.662109	10747.584961
910.458984	10999.284180
909.257813	10731.072266
908.054688	10751.923828
906.851563	10749.903320
905.648438	10880.880859
904.445313	10754.173828
903.242188	10660.750000
902.039063	10600.591797
900.833984	10689.965820
899.630859	10609.061523
898.425781	10818.791992
897.220703	10607.145508
896.015625	10576.099609
894.810547	10484.902344
893.605469	10449.741211
892.400391	10578.422852
891.195313	10418.851563
889.988281	10452.130859
888.783203	10427.362305
887.576172	10388.097656
886.369141	10444.151367
885.162109	10270.252930
883.955078	10257.960938
882.748047	10234.921875
881.541016	10211.882813
880.332031	10188.843750
879.125000	10165.804688
877.916016	10142.765625
876.707031	10215.325195
875.500000	9894.875000
874.291016	9981.928711
873.082031	9909.747070
871.871094	9897.540039
870.662109	9893.603516
869.453125	9961.991211
868.242188	9722.520508
867.031250	9782.651367
865.822266	9712.650391
864.611328	9834.703125
863.400391	9737.879883
862.187500	9686.501953
860.976563	9455.605469
859.765625	9513.650391
858.552734	9499.473633
857.341797	9512.113281
856.128906	9640.223633
854.916016	9421.920898
853.703125	9378.911133
852.490234	9488.423828
851.277344	9470.142578
850.064453	9132.547852
848.849609	9207.027344
847.636719	9277.359375
846.421875	9283.836914
845.207031	9323.248047
843.992188	9156.826172
842.777344	9338.232422
841.562500	9097.803711
840.347656	9299.720703
839.130859	8964.785156
837.916016	9259.179688
836.699219	8932.600586
835.482422	9019.289063
834.267578	9216.916016
833.050781	9122.706055
831.833984	9123.027344
830.615234	9293.820313
829.398438	8926.532227
828.181641	9134.252930
826.962891	9276.206055
825.744141	8999.431641
824.527344	9118.784180
823.308594	9246.296875
822.089844	9113.264648
820.869141	9052.058594
819.650391	9214.366211
818.431641	9136.762695
817.210938	9106.329102
815.992188	9067.709961
814.771484	9315.938477
813.550781	9238.372070
812.330078	9066.625977
811.109375	9075.136719
809.888672	8928.052734
808.666016	9016.413086
807.445313	9331.897461
806.222656	9207.353516
805.001953	9256.739258
803.779297	9152.708984
802.556641	9075.301758
801.333984	9304.600586
800.109375	9100.456055
798.886719	9311.268555
797.664063	9350.357422
796.439453	9166.749023
795.216797	9214.020508
793.992188	9169.375000
792.767578	9232.959961
791.542969	9351.638672
790.318359	9176.366211
789.091797	9366.430664
787.867188	9203.461914
786.642578	9152.746094
785.416016	9220.336914
784.189453	9161.479492
782.962891	9094.490234
781.736328	9170.204102
780.509766	9302.950195
779.283203	9148.357422
778.056641	9150.679688
776.828125	9018.578125
775.601563	9303.972656
774.373047	9395.843750
773.144531	8993.041016
771.916016	9235.537109
770.687500	9070.986328
769.458984	9329.647461
768.230469	9279.042969
767.000000	9210.155273
765.771484	9090.462891
764.541016	9326.558594
763.310547	9310.542969
762.080078	9176.673828
760.849609	9178.976563
759.619141	9234.089844
758.388672	9445.557617
757.156250	9210.239258
755.925781	9283.583984
754.693359	9425.909180
753.462891	9101.438477
752.230469	9308.667969
750.998047	9189.224609
749.765625	9467.340820
748.531250	9110.665039
747.298828	9327.868164
746.064453	9344.316406
744.832031	9458.034180
743.597656	9314.381836
742.363281	9359.182617
741.128906	9294.593750
739.894531	9197.628906
738.660156	9345.680664
737.425781	9317.566406
736.189453	9127.553711
734.955078	9433.361328
733.718750	9370.851563
732.482422	9360.956055
731.246094	9256.014648
730.009766	9504.946289
728.773438	9246.381836
727.537109	9196.092773
726.298828	9258.982422
725.062500	9400.640625
723.824219	9253.390625
722.585938	9312.191406
721.347656	9183.186523
720.109375	9312.634766
718.871094	9100.924805
717.632813	9198.048828
716.392578	9250.748047
715.154297	9246.944336
713.914063	9116.081055
712.673828	9196.993164
711.433594	9308.115234
710.193359	9403.067383
708.953125	9240.027344
707.712891	9044.812500
706.472656	9333.150391
705.230469	9260.851563
703.988281	9027.482422
702.748047	9198.881836
701.505859	9271.580078
700.263672	9279.848633
699.021484	9324.331055
697.777344	9298.384766
696.535156	9417.266602
695.291016	9274.673828
694.048828	9292.982422
692.804688	9176.600586
691.560547	9428.059570
690.316406	9118.789063
689.072266	9342.034180
687.828125	9171.496094
686.582031	9149.634766
685.337891	9248.253906
684.091797	9322.744141
682.847656	9353.048828
681.601563	9238.858398
680.355469	9170.856445
679.109375	9235.271484
677.861328	9363.838867
676.615234	9199.603516
675.369141	9203.831055
674.121094	9264.178711
672.873047	9384.621094
671.625000	9298.646484
670.376953	9188.666992
669.128906	9331.083008
667.880859	9395.348633
666.632813	9147.272461
665.382813	9387.691406
664.134766	9513.945313
662.884766	9332.016602
661.634766	9354.207031
660.384766	9388.387695
659.134766	9350.566406
657.884766	9480.699219
656.632813	9065.078125
655.382813	9500.990234
654.130859	9251.370117
652.880859	9185.640625
651.628906	9243.771484
650.376953	9040.276367
649.125000	8968.633789
647.871094	9050.725586
646.619141	9084.885742
645.367188	9362.471680
644.113281	9302.790039
642.859375	9287.012695
641.607422	9233.350586
640.353516	9454.860352
639.097656	9217.786133
637.843750	9088.429688
636.589844	9299.873047
635.333984	9298.057617
634.080078	9186.686523
632.824219	9214.764648
631.568359	9199.026367
630.312500	9225.099609
629.056641	9151.644531
627.800781	9324.972656
626.544922	9030.681641
625.287109	9331.272461
624.029297	9202.165039
622.773438	9313.704102
621.515625	9498.755859
620.257813	9278.258789
619.000000	9363.881836
617.742188	9348.140625
616.482422	9290.690430
615.224609	9312.704102
613.964844	9487.606445
612.705078	9428.174805
611.445313	9531.528320
610.185547	9509.816406
608.925781	9710.333984
607.666016	9740.170898
606.406250	9783.879883
605.144531	9653.069336
603.884766	9742.375000
602.623047	9853.449219
601.361328	9679.100586
600.099609	9938.748047
598.837891	9966.513672
597.576172	10192.330078
596.312500	9972.503906
595.050781	10031.921875
593.787109	10208.104492
592.523438	10305.053711
591.259766	10263.457031
589.996094	10326.724609
588.732422	10293.049805
587.468750	10332.555664
586.205078	10300.868164
584.939453	10283.030273
583.673828	10449.000000
582.410156	10383.714844
581.144531	10440.940430
579.878906	10517.894531
578.611328	10610.617188
577.345703	10511.783203
576.080078	10718.961914
574.812500	10833.297852
573.546875	10864.710938
572.279297	10868.491211
571.011719	10751.948242
569.744141	10826.743164
568.476563	10745.743164
567.207031	10771.225586
565.939453	10784.871094
564.669922	10922.654297
563.402344	10733.338867
562.132813	10786.376953
560.863281	11008.758789
559.593750	10707.303711
558.322266	10974.889648
557.052734	11035.708008
555.783203	11098.469727
554.511719	10710.665039
553.240234	10889.519531
551.968750	10907.038086
550.697266	10836.066406
549.425781	10786.747070
548.154297	10684.377930
546.882813	10904.324219
545.609375	11010.230469
544.337891	10917.697266
543.064453	11074.620117
541.791016	11233.443359
540.517578	10881.782227
539.244141	11073.946289
537.970703	11012.885742
536.695313	11216.718750
535.421875	11200.770508
534.146484	11194.633789
532.871094	11161.046875
531.595703	11215.692383
530.320313	11246.794922
529.044922	11260.247070
527.769531	11171.811523
526.492188	11283.216797
525.216797	11094.925781
523.939453	11362.949219
522.662109	11211.913086
521.384766	11291.901367
520.107422	11391.426758
518.830078	11445.911133
517.552734	11498.416992
516.273438	11511.786133
514.996094	11458.665039
513.716797	11622.570313
512.437500	11499.080078
511.158203	11752.806641
509.878906	11764.153320
508.599609	11656.333984
507.318359	11771.207031
506.039063	11723.960938
504.757813	11643.542969
503.476563	11637.330078
502.197266	11732.597656
500.916016	11872.703125
499.632813	11745.498047
498.351563	11807.529297
497.070313	11799.334961
495.787109	11995.851563
494.503906	11701.087891
493.222656	11802.051758
491.939453	11715.925781
490.656250	11962.948242
489.371094	11754.119141
488.087891	11987.403320
486.804688	11881.836914
485.519531	11747.113281
484.234375	11768.131836
482.949219	11972.039063
481.666016	11621.443359
480.378906	11875.865234
479.093750	11784.053711
477.808594	11785.598633
476.521484	11827.960938
475.236328	11895.570313
473.949219	11797.995117
472.662109	11956.885742
471.375000	11672.880859
470.087891	11721.044922
468.798828	11617.754883
467.511719	11613.500977
466.222656	11702.401367
464.935547	11692.309570
463.646484	11639.541992
462.357422	11708.986328
461.068359	11537.947266
459.779297	11640.341797
458.488281	11661.282227
457.199219	11695.780273
455.908203	11480.311523
454.619141	11530.328125
453.328125	11591.944336
452.037109	11781.340820
450.746094	11889.346680
449.453125	11916.010742
448.162109	11832.351563
446.869141	11771.943359
445.578125	11744.446289
444.285156	11790.456055
442.992188	12025.953125
441.699219	11946.217773
440.406250	12040.482422
439.111328	11983.965820
437.818359	11861.776367
436.523438	12066.111328
435.230469	11928.501953
433.935547	12032.326172
432.640625	12161.207031
431.345703	12098.939453
430.048828	12467.059570
428.753906	12526.312500
427.457031	12226.724609
426.162109	12500.088867
424.865234	12622.932617
423.568359	12371.702148
422.271484	12685.350586
420.974609	12536.347656
419.677734	12730.374023
418.378906	12606.462891
417.082031	12652.091797
415.783203	12745.842773
414.484375	12945.444336
413.185547	12823.511719
411.886719	12921.018555
410.587891	12883.798828
409.287109	12802.347656
407.988281	13003.657227
406.687500	13064.510742
405.386719	12940.773438
404.085938	12822.851563
402.785156	12893.310547
401.484375	12717.801758
400.183594	12882.382813
398.880859	12874.040039
397.580078	12863.779297
396.277344	12782.486328
394.974609	12680.111328
393.671875	12856.045898
392.369141	12757.533203
391.066406	12724.282227
389.763672	12570.213867
388.458984	12500.578125
387.154297	12555.586914
385.851563	12409.308594
384.546875	12295.667969
383.242188	12134.171875
381.937500	12555.093750
380.630859	12468.302734
379.326172	12590.267578
378.019531	12633.688477
376.712891	12217.707031
375.408203	12102.345703
374.101563	12228.109375
372.792969	12133.833008
371.486328	12202.161133
370.179688	12050.560547
368.871094	12334.910156
367.564453	12322.875977
366.255859	12159.874023
364.947266	12069.541992
363.638672	12237.130859
362.330078	12013.125977
361.019531	12106.186523
359.710938	12006.389648
358.400391	12175.761719
357.089844	11950.038086
355.781250	11934.280273
354.470703	12189.404297
353.158203	11940.925781
351.847656	11972.847656
350.537109	11989.503906
349.224609	11975.656250
347.914063	11895.116211
346.601563	12056.577148
345.289063	12017.958984
343.976563	11813.663086
342.662109	11824.615234
341.349609	11883.156250
340.037109	11785.596680
338.722656	11707.105469
337.408203	11640.061523
336.093750	11738.536133
334.779297	11576.418945
333.464844	11623.526367
332.150391	11391.158203
330.833984	11417.374023
329.519531	11453.081055
328.203125	11395.677734
326.886719	11647.919922
325.570313	11470.851563
324.253906	11536.896484
322.937500	11711.122070
321.619141	11490.493164
320.302734	11501.460938
318.984375	11647.127930
317.666016	11491.135742
316.347656	11522.957031
315.029297	11414.453125
313.710938	11561.914063
312.392578	11697.942383
311.072266	11549.672852
309.753906	11626.916016
308.433594	11715.493164
307.113281	11612.759766
305.792969	11727.809570
304.472656	11502.066406
303.152344	11581.130859
301.830078	11773.699219
300.509766	11873.486328
299.187500	11765.166992
297.865234	12135.344727
296.542969	11957.057617
295.220703	12011.355469
293.898438	12084.531250
292.574219	12278.611328
291.251953	12329.031250
289.927734	12912.082031
288.603516	12941.580078
287.279297	13191.969727
285.955078	12783.453125
284.630859	12765.774414
283.306641	12315.994141
281.980469	12194.655273
280.656250	11886.633789
279.330078	12102.985352
278.003906	11913.885742
276.677734	11815.343750
275.351563	11839.342773
274.023438	11680.557617
272.697266	11463.435547
271.369141	11847.238281
270.042969	11586.857422
268.714844	11646.647461
267.386719	11623.587891
266.058594	11476.327148
264.728516	11714.853516
263.400391	11661.693359
262.070313	11792.876953
260.742188	11687.068359
259.412109	11573.781250
258.082031	11565.803711
256.751953	11499.568359
255.421875	11546.096680
254.089844	11735.375977
252.759766	11721.735352
251.427734	11786.966797
250.095703	12058.687500
248.763672	11748.414063
247.431641	11736.655273
246.099609	11828.096680
244.767578	11896.989258
243.433594	11688.275391
242.101563	11684.037109
240.767578	11981.636719
239.433594	11855.503906
238.099609	11877.467773
236.765625	11979.989258
235.431641	11947.593750
234.095703	11915.210938
232.761719	11974.593750
231.425781	12148.149414
230.089844	12074.566406
228.753906	11682.880859
227.417969	11746.001953
226.082031	11992.415039
224.744141	12004.950195
223.408203	11877.241211
222.070313	12211.341797
220.732422	12319.146484
219.394531	12165.288086
218.056641	12121.723633
216.718750	12003.457031
215.378906	11986.086914
214.041016	12144.240234
212.701172	12173.517578
211.361328	12070.266602
210.023438	12148.063477
208.681641	11987.021484
207.341797	11982.729492
206.001953	12079.145508
204.660156	11953.639648
203.320313	12187.969727
201.978516	12289.875000
200.636719	12388.011719
199.294922	12189.883789
197.953125	12211.630859
196.611328	12319.033203
195.267578	12500.868164
193.923828	12574.659180
192.582031	12668.893555
191.238281	12591.896484
189.894531	12613.532227
188.550781	12614.698242
187.205078	12515.441406
185.861328	12758.331055
184.515625	12629.342773
183.171875	12613.775391
181.826172	12876.935547
180.480469	12855.750000
179.134766	12875.434570
177.787109	12874.683594
176.441406	12957.481445
175.093750	12817.494141
173.748047	13017.189453
172.400391	13046.096680
171.052734	13240.098633
169.705078	13140.969727
168.355469	12958.432617
167.007813	13217.222656
165.660156	12999.524414
164.310547	13063.608398
162.960938	13164.723633
161.611328	13206.516602
160.261719	13402.019531
158.912109	13195.611328
157.560547	13154.059570
156.210938	13171.755859
154.859375	13239.412109
153.507813	13218.227539
152.156250	13161.903320
150.804688	13383.027344
149.453125	13298.954102
148.101563	13370.210938
146.748047	13378.592773
145.396484	13719.611328
144.042969	13474.792969
142.689453	13688.192383
141.335938	13672.491211
139.982422	13941.158203
138.626953	13993.718750
137.273438	13961.351563
135.917969	14139.371094
134.564453	14121.747070
133.208984	14201.895508
131.853516	14564.183594
130.496094	14588.891602
129.140625	14657.833984
127.785156	14562.707031
126.427734	14467.619141
125.070313	14481.269531
123.712891	14505.966797
122.355469	14674.302734
120.998047	14448.535156
119.640625	14521.085938
118.281250	14674.589844
116.923828	14425.036133
115.564453	14762.475586
114.205078	14739.251953
112.845703	14708.680664
111.486328	14558.607422
110.126953	14706.400391
108.765625	14797.156250
107.406250	14948.513672
106.044922	15042.857422
104.683594	15085.730469
103.322266	15159.806641
101.960938	15246.703125
100.599609	15144.488281
99.236328	15402.038086
97.875000	15125.510742
96.511719	15263.710938
95.148438	15337.657227
93.785156	15646.303711
92.421875	15820.982422
91.058594	15779.284180
89.693359	15999.681641
88.330078	15701.433594
86.964844	15727.566406
85.599609	15565.032227
84.234375	15779.798828
82.869141	15871.809570
81.503906	15804.529297
80.138672	15610.997070
78.771484	15481.583984
77.404297	15365.028320
76.037109	15654.561523
74.669922	15559.960938
73.302734	15613.488281
71.935547	15650.541992
70.568359	15291.005859
69.199219	15430.430664
67.832031	15186.170898
66.462891	15128.304688
65.093750	14754.553711
63.724609	14775.302734
62.353516	14628.113281
60.984375	14530.256836
59.613281	13812.081055
