#Wave		#Intensity
1319.062500	5284.177246
1317.935547	4951.560059
1316.808594	4857.551270
1315.679688	5149.272949
1314.552734	5148.344727
1313.423828	5058.782227
1312.294922	5031.284668
1311.167969	5116.764160
1310.039063	5124.700195
1308.908203	4997.563965
1307.779297	5069.719727
1306.650391	5206.039063
1305.521484	5061.251953
1304.390625	5155.482910
1303.261719	4911.205078
1302.130859	5155.834961
1301.000000	5068.658203
1299.869141	4855.482422
1298.738281	5035.880371
1297.607422	5028.340820
1296.476563	4963.347656
1295.343750	4962.452148
1294.212891	5016.783203
1293.080078	4845.811035
1291.949219	4867.019043
1290.816406	5067.056641
1289.683594	4993.295898
1288.550781	4895.283203
1287.417969	4825.993164
1286.285156	4849.391113
1285.152344	4731.604004
1284.017578	4752.804688
1282.884766	4831.329590
1281.750000	4978.170898
1280.617188	4805.338379
1279.482422	4859.567871
1278.347656	4819.027344
1277.212891	4950.342773
1276.078125	4793.057617
1274.943359	4900.104492
1273.806641	4978.487793
1272.671875	4911.543457
1271.535156	4743.372559
1270.400391	4984.593262
1269.263672	4684.451172
1268.126953	4866.197266
1266.990234	4847.722168
1265.853516	4868.837402
1264.716797	4889.944824
1263.580078	4886.862793
1262.441406	4868.396484
1261.304688	4860.924316
1260.166016	4871.031250
1259.029297	4799.855469
1257.890625	4748.472168
1256.751953	4846.431152
1255.613281	4610.632324
1254.474609	4853.459473
1253.335938	4856.971191
1252.195313	4715.654785
1251.056641	4681.893066
1249.916016	5012.272949
1248.777344	4719.676270
1247.636719	4679.353027
1246.496094	4827.587402
1245.355469	4973.576172
1244.214844	4952.952148
1243.074219	4695.688965
1241.933594	4773.707031
1240.791016	4969.978027
1239.650391	4723.800293
1238.507813	4917.818848
1237.367188	4765.874512
1236.224609	4966.381348
1235.082031	4788.221680
1233.939453	4728.278809
1232.796875	4733.985840
1231.654297	4840.302246
1230.509766	4845.985840
1229.367188	4952.243164
1228.222656	4855.161133
1227.080078	4808.383789
1225.935547	4759.437988
1224.791016	4937.732422
1223.646484	4899.702637
1222.501953	4868.238281
1221.357422	4906.661621
1220.212891	4997.469238
1219.066406	4939.809570
1217.921875	4941.096680
1216.775391	4942.383301
1215.628906	4906.580566
1214.484375	5086.737305
1213.337891	4867.727051
1212.191406	4777.444824
1211.042969	5059.990234
1209.896484	4947.908203
1208.750000	4844.583984
1207.601563	5037.627441
1206.455078	4951.751953
1205.306641	5077.184570
1204.158203	4980.443848
1203.011719	4870.673828
1201.863281	5035.236816
1200.712891	4895.024902
1199.564453	4937.659180
1198.416016	4975.926758
1197.267578	5046.810059
1196.117188	5050.243652
1194.966797	4944.948242
1193.818359	4989.707520
1192.667969	4990.975586
1191.517578	4857.493164
1190.367188	5045.660156
1189.216797	4944.805176
1188.064453	4963.456543
1186.914063	5186.250000
1185.763672	5059.366211
1184.611328	5075.814941
1183.458984	5318.000977
1182.306641	4987.161621
1181.156250	5001.443848
1180.003906	4991.856934
1178.849609	5175.317383
1177.697266	5128.834961
1176.544922	5125.734375
1175.390625	5137.809082
1174.238281	5121.702637
1173.083984	5073.095703
1171.929688	5347.339844
1170.777344	5205.559082
1169.623047	5085.488770
1168.466797	5169.017090
1167.312500	5070.647461
1166.158203	5284.029785
1165.003906	4984.394043
1163.847656	5202.041504
1162.691406	5315.760742
1161.537109	5282.346191
1160.380859	5365.730469
1159.224609	5325.831543
1158.068359	5264.327148
1156.912109	5278.499023
1155.753906	5271.053711
1154.597656	5432.150391
1153.441406	5327.462891
1152.283203	5183.934082
1151.125000	5437.819336
1149.966797	5497.285645
1148.808594	5433.678223
1147.650391	5430.529297
1146.492188	5524.491211
1145.333984	5586.054688
1144.175781	5673.481934
1143.015625	5717.740234
1141.857422	5626.126953
1140.697266	5508.674805
1139.537109	5427.910645
1138.376953	5735.121094
1137.216797	5589.698730
1136.056641	5629.613281
1134.896484	5725.518555
1133.736328	5978.607422
1132.574219	5762.187012
1131.414063	5814.957031
1130.251953	5745.015137
1129.089844	5875.244141
1127.927734	5966.694336
1126.765625	6032.295410
1125.603516	5689.195801
1124.441406	6131.165527
1123.279297	5930.082031
1122.115234	6165.470215
1120.953125	6078.369141
1119.789063	6038.576172
1118.625000	6273.814453
1117.462891	6309.186035
1116.298828	6381.056641
1115.132813	6422.836914
1113.968750	6447.425781
1112.804688	6495.618164
1111.640625	6522.330078
1110.474609	6435.303711
1109.308594	6702.303711
1108.144531	6493.008789
1106.978516	6725.585449
1105.812500	6548.525879
1104.646484	6772.431152
1103.480469	6758.329590
1102.312500	6754.948730
1101.146484	6858.702148
1099.980469	7086.669434
1098.812500	7001.837402
1097.644531	6904.186523
1096.476563	7050.657227
1095.310547	7137.133789
1094.140625	7148.666992
1092.972656	7265.052246
1091.804688	7370.696289
1090.636719	7401.431641
1089.466797	7074.983887
1088.298828	7383.747559
1087.128906	7331.081543
1085.958984	7526.392578
1084.789063	7492.953613
1083.619141	7604.827637
1082.449219	7485.929688
1081.279297	7713.107422
1080.107422	7735.182617
1078.937500	7787.142090
1077.765625	7747.284668
1076.595703	7794.953613
1075.423828	7806.325195
1074.251953	7907.306152
1073.080078	7991.183105
1071.908203	8023.839844
1070.736328	8190.830078
1069.562500	8061.398926
1068.390625	8132.393555
1067.216797	8173.523926
1066.044922	8137.925781
1064.871094	8330.305664
1063.697266	8503.442383
1062.523438	8416.688477
1061.349609	8540.769531
1060.173828	8788.284180
1059.000000	8478.026367
1057.826172	8502.002930
1056.650391	8830.241211
1055.474609	8843.506836
1054.300781	8926.957031
1053.125000	8944.451172
1051.949219	8919.415039
1050.773438	8941.155273
1049.595703	8843.863281
1048.419922	9333.113281
1047.244141	9210.289063
1046.066406	9110.875000
1044.888672	9389.542969
1043.710938	9491.860352
1042.535156	9545.309570
1041.357422	9405.574219
1040.177734	9365.637695
1039.000000	9728.874023
1037.822266	9489.469727
1036.642578	9769.825195
1035.464844	9545.346680
1034.285156	9931.602539
1033.105469	9874.650391
1031.925781	9887.663086
1030.746094	9697.231445
1029.566406	9926.384766
1028.386719	9848.289063
1027.207031	9986.254883
1026.025391	10066.994141
1024.845703	9950.804688
1023.664063	9984.950195
1022.482422	10177.812500
1021.300781	9991.836914
1020.119141	10106.347656
1018.937500	10127.745117
1017.755859	10525.576172
1016.574219	10252.977539
1015.390625	10365.239258
1014.207031	10356.978516
1013.025391	10562.162109
1011.841797	10585.560547
1010.658203	10640.636719
1009.474609	10488.706055
1008.291016	10376.954102
1007.107422	10603.052734
1005.921875	10670.748047
1004.738281	10719.422852
1003.552734	10668.902344
1002.367188	10755.533203
1001.183594	10544.711914
999.998047	10376.146484
998.812500	10633.577148
997.626953	10718.040039
996.439453	10576.936523
995.253906	10642.410156
994.066406	10579.331055
992.880859	10509.954102
991.693359	10638.588867
990.505859	10501.838867
989.318359	10779.913086
988.130859	10464.256836
986.943359	10531.765625
985.755859	10340.423828
984.566406	10572.033203
983.378906	10620.551758
982.189453	10578.617188
981.001953	10591.369141
979.812500	10625.138672
978.623047	10501.250000
977.433594	10556.038086
976.242188	10478.431641
975.052734	10694.960938
973.863281	10514.438477
972.671875	10403.282227
971.482422	10403.444336
970.291016	10357.423828
969.099609	10510.805664
967.908203	10534.028320
966.716797	10303.381836
965.525391	10498.638672
964.332031	10435.862305
963.140625	10335.364258
961.947266	10125.887695
960.755859	10371.335938
959.562500	10187.077148
958.369141	10245.940430
957.175781	10227.269531
955.982422	10361.503906
954.789063	10344.911133
953.593750	10290.636719
952.400391	10251.035156
951.205078	10263.771484
950.009766	10063.062500
948.816406	10121.855469
947.621094	10207.819336
946.425781	10247.739258
945.230469	10045.088867
944.033203	10250.180664
942.837891	10229.452148
941.640625	10212.911133
940.445313	10079.367188
939.248047	10129.708008
938.050781	10000.406250
936.853516	10188.565430
935.656250	10073.914063
934.458984	10013.580078
933.261719	10011.705078
932.062500	10160.072266
930.865234	9951.625977
929.666016	10122.892578
928.466797	9927.042969
927.269531	9993.992188
926.070313	10010.881836
924.869141	10090.294922
923.669922	9809.154297
922.470703	9926.078125
921.269531	9738.814453
920.070313	10061.901367
918.869141	9799.715820
917.667969	9704.187500
916.466797	9941.750977
915.265625	9796.281250
914.064453	9590.521484
912.863281	9655.294922
911.662109	9522.439453
910.458984	9682.863281
909.257813	9595.794922
908.054688	9438.077148
906.851563	9515.286133
905.648438	9449.077148
904.445313	9227.064453
903.242188	9385.282227
902.039063	9283.826172
900.833984	9398.365234
899.630859	9421.510742
898.425781	9234.997070
897.220703	9139.868164
896.015625	9138.148438
894.810547	9221.486328
893.605469	9035.147461
892.400391	9083.216797
891.195313	9149.928711
889.988281	9054.919922
888.783203	8839.734375
887.576172	8780.045898
886.369141	8900.629883
885.162109	8621.377930
883.955078	8679.813477
882.748047	8618.126953
881.541016	8821.459961
880.332031	8205.039063
879.125000	8348.355469
877.916016	8363.333008
876.707031	8272.799805
875.500000	8192.642578
874.291016	8236.589844
873.082031	8373.560547
871.871094	8084.644531
870.662109	8072.783691
869.453125	7918.346680
868.242188	7995.357910
867.031250	7884.370605
865.822266	7705.272949
864.611328	7829.770020
863.400391	7634.233887
862.187500	7742.183594
860.976563	7524.036621
859.765625	7627.839355
858.552734	7527.378418
857.341797	7651.764648
856.128906	7594.640137
854.916016	7541.660156
853.703125	7538.170898
852.490234	7279.129883
851.277344	7149.999023
850.064453	7144.523926
848.849609	7186.424805
847.636719	7366.285156
846.421875	7123.991211
845.207031	7229.686035
843.992188	7133.639160
842.777344	7105.535156
841.562500	6865.529297
840.347656	7185.119629
839.130859	6881.433594
837.916016	6863.678223
836.699219	6944.608398
835.482422	6848.739746
834.267578	6882.375000
833.050781	6726.968262
831.833984	6892.086914
830.615234	6919.531738
829.398438	6930.537598
828.181641	6929.220703
826.962891	6915.587402
825.744141	6805.499512
824.527344	6773.426270
823.308594	6811.117188
822.089844	6898.021484
820.869141	6775.713867
819.650391	6612.445313
818.431641	6766.985352
817.210938	6648.870605
815.992188	6811.541016
814.771484	6881.952148
813.550781	6903.173828
812.330078	6840.417969
811.109375	6900.543945
809.888672	6993.402832
808.666016	6703.462891
807.445313	6833.158691
806.222656	6942.344238
805.001953	7041.259277
803.779297	7119.682617
802.556641	6823.857910
801.333984	6977.939453
800.109375	6874.401367
798.886719	7153.081543
797.664063	6810.477051
796.439453	7029.815918
795.216797	6830.344727
793.992188	7051.637207
792.767578	7085.000488
791.542969	7059.149902
790.318359	6882.274414
789.091797	7164.604980
787.867188	7142.833008
786.642578	6947.682617
785.416016	7227.797852
784.189453	7246.806152
782.962891	7147.563477
781.736328	7023.899414
780.509766	7285.442871
779.283203	7074.186035
778.056641	7368.212402
776.828125	6985.935547
775.601563	7121.031738
774.373047	7237.751953
773.144531	7012.455566
771.916016	7312.314941
770.687500	7129.819336
769.458984	7158.968262
768.230469	7285.736816
767.000000	7253.835938
765.771484	7071.489746
764.541016	7405.547852
763.310547	7164.300781
762.080078	7193.406738
760.849609	7153.425293
759.619141	7160.177246
758.388672	7370.012695
757.156250	7364.536621
755.925781	7154.023438
754.693359	7430.717773
753.462891	7382.616211
752.230469	7243.230957
750.998047	7193.154297
749.765625	7449.345215
748.531250	7399.247070
747.298828	7568.122559
746.064453	7463.291504
744.832031	7378.766602
743.597656	7310.482910
742.363281	7428.598145
741.128906	7406.914551
739.894531	7474.339355
738.660156	7308.905273
737.425781	7570.648926
736.189453	7376.925293
734.955078	7551.545410
733.718750	7491.421387
732.482422	7514.250000
731.246094	7696.830566
730.009766	7713.543945
728.773438	7435.109863
727.537109	7484.204590
726.298828	7628.253418
725.062500	7642.944824
723.824219	7693.989258
722.585938	7805.599609
721.347656	7676.885742
720.109375	7818.737305
718.871094	7625.480957
717.632813	7640.152344
716.392578	7626.571289
715.154297	7754.200195
713.914063	7599.422852
712.673828	7775.401367
711.433594	7790.027344
710.193359	7830.850586
708.953125	8057.062500
707.712891	7719.019043
706.472656	7767.888672
705.230469	7903.345215
703.988281	7742.732910
702.748047	7632.515137
701.505859	7862.525391
700.263672	7961.630859
699.021484	8008.381348
697.777344	7972.630859
696.535156	7904.711426
695.291016	8126.399902
694.048828	7859.426758
692.804688	8044.853027
691.560547	7991.039063
690.316406	7961.357910
689.072266	8128.573730
687.828125	7928.141602
686.582031	8063.166016
685.337891	8153.963867
684.091797	7869.327148
682.847656	7970.162109
681.601563	8149.218750
680.355469	8235.915039
679.109375	8105.937012
677.861328	8198.623047
676.615234	8243.149414
675.369141	8115.249023
674.121094	8181.820801
672.873047	8148.167480
671.625000	8102.505371
670.376953	8219.119141
669.128906	8369.735352
667.880859	8304.030273
666.632813	8262.375000
665.382813	8236.748047
664.134766	8309.192383
662.884766	8339.589844
661.634766	8181.930176
660.384766	8496.350586
659.134766	8252.734375
657.884766	8477.048828
656.632813	8399.439453
655.382813	8391.808594
654.130859	8246.307617
652.880859	8452.466797
651.628906	8318.995117
650.376953	8449.173828
649.125000	8301.776367
647.871094	8555.669922
646.619141	8462.195313
645.367188	8484.490234
644.113281	8189.566895
642.859375	8558.971680
641.607422	8549.324219
640.353516	8529.711914
639.097656	8286.837891
637.843750	8414.769531
636.589844	8333.419922
635.333984	8401.522461
634.080078	8433.744141
632.824219	8428.114258
631.568359	8531.998047
630.312500	8331.255859
629.056641	8532.644531
627.800781	8568.786133
626.544922	8571.089844
625.287109	8543.554688
624.029297	8543.873047
622.773438	8778.822266
621.515625	8498.782227
620.257813	8773.400391
619.000000	8704.117188
617.742188	8609.032227
616.482422	8702.697266
615.224609	8889.669922
613.964844	8842.258789
612.705078	8866.335938
611.445313	8713.746094
610.185547	8850.956055
608.925781	9003.983398
607.666016	9049.829102
606.406250	8885.420898
605.144531	9058.179688
603.884766	9173.375977
602.623047	9084.360352
601.361328	9227.250000
600.099609	9395.841797
598.837891	9471.257813
597.576172	9388.194336
596.312500	9433.877930
595.050781	9430.045898
593.787109	9552.901367
592.523438	9434.259766
591.259766	9729.210938
589.996094	9499.795898
588.732422	9588.913086
587.468750	9703.703125
586.205078	9660.277344
584.939453	9800.704102
583.673828	9947.004883
582.410156	9873.915039
581.144531	10051.750977
579.878906	9982.618164
578.611328	10020.150391
577.345703	10164.286133
576.080078	10152.416992
574.812500	10349.756836
573.546875	10284.576172
572.279297	10154.315430
571.011719	10104.977539
569.744141	10219.340820
568.476563	10280.422852
567.207031	10349.365234
565.939453	10323.675781
564.669922	10473.373047
563.402344	10400.384766
562.132813	10467.276367
560.863281	10520.355469
559.593750	10413.925781
558.322266	10596.919922
557.052734	10541.689453
555.783203	10305.440430
554.511719	10618.196289
553.240234	10730.189453
551.968750	10588.440430
550.697266	10289.445313
549.425781	10519.387695
548.154297	10440.657227
546.882813	10566.328125
545.609375	10554.417969
544.337891	10630.907227
543.064453	10646.482422
541.791016	10434.280273
540.517578	10616.755859
539.244141	10563.625977
537.970703	10667.506836
536.695313	10749.764648
535.421875	10624.058594
534.146484	10845.536133
532.871094	10559.071289
531.595703	10851.049805
530.320313	10917.505859
529.044922	10817.362305
527.769531	10999.394531
526.492188	10864.013672
525.216797	11004.833984
523.939453	11024.195313
522.662109	10867.352539
521.384766	10880.859375
520.107422	11047.002930
518.830078	11244.384766
517.552734	11208.903320
516.273438	11085.423828
514.996094	11163.398438
513.716797	11110.356445
512.437500	10998.695313
511.158203	11072.730469
509.878906	11301.089844
508.599609	11193.362305
507.318359	11269.265625
506.039063	11179.160156
504.757813	11360.458984
503.476563	11483.127930
502.197266	11457.431641
500.916016	11644.418945
499.632813	11423.624023
498.351563	11544.229492
497.070313	11344.989258
495.787109	11451.914063
494.503906	11488.625000
493.222656	11443.468750
491.939453	11602.916016
490.656250	11549.961914
489.371094	11504.819336
488.087891	11448.009766
486.804688	11280.249023
485.519531	11385.064453
484.234375	11538.490234
482.949219	11353.298828
481.666016	11294.626953
480.378906	11521.884766
479.093750	11406.808594
477.808594	11460.920898
476.521484	11454.752930
475.236328	11392.228516
473.949219	11358.874023
472.662109	11440.146484
471.375000	11416.504883
470.087891	11377.336914
468.798828	11192.573242
467.511719	11349.513672
466.222656	11384.126953
464.935547	11205.291016
463.646484	11206.939453
462.357422	11410.297852
461.068359	11268.405273
459.779297	11198.302734
458.488281	11023.555664
457.199219	11279.111328
455.908203	11305.927734
454.619141	11253.305664
453.328125	11398.260742
452.037109	11314.657227
450.746094	11331.761719
449.453125	11219.167969
448.162109	11220.800781
446.869141	11419.791992
445.578125	11113.793945
444.285156	11413.300781
442.992188	11291.129883
441.699219	11547.946289
440.406250	11439.328125
439.111328	11496.954102
437.818359	11620.250977
436.523438	11658.499023
435.230469	11607.884766
433.935547	11592.048828
432.640625	11674.681641
431.345703	11913.632813
430.048828	11556.153320
428.753906	11850.987305
427.457031	12064.679688
426.162109	11979.332031
424.865234	11888.233398
423.568359	12148.059570
422.271484	11945.163086
420.974609	12110.439453
419.677734	11919.190430
418.378906	12084.404297
417.082031	12349.705078
415.783203	12158.521484
414.484375	12208.070313
413.185547	12161.355469
411.886719	12210.882813
410.587891	12485.508789
409.287109	12261.782227
407.988281	12415.117188
406.687500	12406.862305
405.386719	12385.152344
404.085938	12288.485352
402.785156	12480.125000
401.484375	12197.099609
400.183594	12267.655273
398.880859	12182.610352
397.580078	12089.916992
396.277344	12214.205078
394.974609	12085.071289
393.671875	12149.817383
392.369141	12011.153320
391.066406	11962.705078
389.763672	12100.316406
388.458984	11700.955078
387.154297	11765.709961
385.851563	11853.439453
384.546875	11950.714844
383.242188	11614.929688
381.937500	11543.636719
380.630859	11531.744141
379.326172	11782.192383
378.019531	11584.550781
376.712891	11526.716797
375.408203	11396.183594
374.101563	11378.589844
372.792969	11255.789063
371.486328	11178.939453
370.179688	11126.977539
368.871094	11539.603516
367.564453	11248.662109
366.255859	11275.068359
364.947266	11154.342773
363.638672	11171.205078
362.330078	11161.321289
361.019531	11201.086914
359.710938	11007.924805
358.400391	11089.696289
357.089844	10847.016602
355.781250	11150.109375
354.470703	10844.563477
353.158203	11113.204102
351.847656	10765.837891
350.537109	10822.772461
349.224609	10851.091797
347.914063	10909.890625
346.601563	10568.557617
345.289063	10779.779297
343.976563	10638.582031
342.662109	10567.892578
341.349609	10718.065430
340.037109	10561.737305
338.722656	10704.237305
337.408203	10732.524414
336.093750	10669.494141
334.779297	10562.746094
333.464844	10549.210938
332.150391	10465.340820
330.833984	10531.658203
329.519531	10341.408203
328.203125	10208.231445
326.886719	10432.219727
325.570313	10441.513672
324.253906	10496.374023
322.937500	10321.505859
321.619141	10315.630859
320.302734	10351.504883
318.984375	10432.897461
317.666016	10434.588867
316.347656	10214.391602
315.029297	10257.839844
313.710938	10145.821289
312.392578	10376.900391
311.072266	10323.645508
309.753906	10412.502930
308.433594	10351.684570
307.113281	10378.003906
305.792969	10461.115234
304.472656	10290.525391
303.152344	10466.359375
301.830078	10471.817383
300.509766	10412.949219
299.187500	10418.414063
297.865234	10508.977539
296.542969	10455.807617
295.220703	10531.203125
293.898438	10345.750000
292.574219	10553.408203
291.251953	10420.921875
289.927734	10371.598633
288.603516	10456.374023
287.279297	10609.084961
285.955078	10278.485352
284.630859	10559.506836
283.306641	10581.905273
281.980469	10768.423828
280.656250	10562.543945
279.330078	10707.501953
278.003906	10558.278320
276.677734	10607.041992
275.351563	10693.478516
274.023438	10602.757813
272.697266	10545.984375
271.369141	10666.281250
270.042969	10585.036133
268.714844	10584.780273
267.386719	10548.758789
266.058594	10659.546875
264.728516	10711.959961
263.400391	10645.833984
262.070313	10715.154297
260.742188	10859.665039
259.412109	10658.181641
258.082031	10479.335938
256.751953	10514.804688
255.421875	10704.331055
254.089844	10653.324219
252.759766	10893.457031
251.427734	10782.341797
250.095703	10849.626953
248.763672	10678.499023
247.431641	10796.447266
246.099609	10700.449219
244.767578	10732.051758
243.433594	10795.525391
242.101563	10896.475586
240.767578	10916.768555
239.433594	11094.501953
238.099609	10966.700195
236.765625	11213.674805
235.431641	11160.828125
234.095703	10879.512695
232.761719	11199.380859
231.425781	11303.826172
230.089844	11204.208984
228.753906	11205.684570
227.417969	10999.481445
226.082031	11060.856445
224.744141	11230.678711
223.408203	11202.228516
222.070313	11183.136719
220.732422	11223.862305
219.394531	11066.488281
218.056641	11342.629883
216.718750	11097.500977
215.378906	11341.774414
214.041016	11218.111328
212.701172	11215.840820
211.361328	11054.922852
210.023438	11142.255859
208.681641	11098.956055
207.341797	11268.317383
206.001953	11241.791992
204.660156	11463.262695
203.320313	11477.719727
201.978516	11512.671875
200.636719	11234.554688
199.294922	11500.558594
197.953125	11360.392578
196.611328	11410.236328
195.267578	11564.327148
193.923828	11444.708984
192.582031	11501.948242
191.238281	11529.391602
189.894531	11720.539063
188.550781	11759.085938
187.205078	11739.967773
185.861328	11932.814453
184.515625	11971.292969
183.171875	11909.396484
181.826172	11879.112305
180.480469	12008.607422
179.134766	12108.332031
177.787109	12247.012695
176.441406	12198.116211
175.093750	12106.544922
173.748047	12243.285156
172.400391	12105.352539
171.052734	12210.499023
169.705078	12363.825195
168.355469	12162.901367
167.007813	12253.138672
165.660156	12335.923828
164.310547	11986.866211
162.960938	12253.105469
161.611328	12213.573242
160.261719	12068.485352
158.912109	12373.431641
157.560547	12296.870117
156.210938	12377.674805
154.859375	12488.055664
153.507813	12370.810547
152.156250	12423.800781
150.804688	12628.428711
149.453125	12328.160156
148.101563	12423.647461
146.748047	12341.649414
145.396484	12664.399414
144.042969	12774.539063
142.689453	13015.790039
141.335938	12673.326172
139.982422	13069.605469
138.626953	13066.958008
137.273438	13143.678711
135.917969	13255.429688
134.564453	13586.692383
133.208984	13558.115234
131.853516	13396.761719
130.496094	13399.580078
129.140625	13712.107422
127.785156	13889.958008
126.427734	13761.835938
125.070313	13541.645508
123.712891	14111.772461
122.355469	13687.175781
120.998047	13844.594727
119.640625	13705.563477
118.281250	13947.578125
116.923828	13847.224609
115.564453	14039.437500
114.205078	13924.389648
112.845703	13947.316406
111.486328	13723.850586
110.126953	13857.105469
108.765625	13883.706055
107.406250	14145.501953
106.044922	14120.590820
104.683594	14060.790039
103.322266	14232.404297
101.960938	14233.194336
100.599609	14279.875977
99.236328	14519.247070
97.875000	14457.588867
96.511719	14339.082031
95.148438	14805.736328
93.785156	14731.218750
92.421875	14865.746094
91.058594	14739.918945
89.693359	14689.284180
88.330078	14812.742188
86.964844	14890.350586
85.599609	14707.838867
84.234375	14750.641602
82.869141	14954.543945
81.503906	14634.840820
80.138672	14829.532227
78.771484	14425.813477
77.404297	14814.382813
76.037109	14571.783203
74.669922	14841.302734
73.302734	14569.541992
71.935547	14621.430664
70.568359	14499.681641
69.199219	14334.129883
67.832031	14345.843750
66.462891	14322.850586
65.093750	13861.611328
63.724609	14028.595703
62.353516	13551.174805
60.984375	13610.481445
59.613281	13146.109375
